accel_x,accel_y,accel_z
8.218300721088306486e-07,-1.034544405379148718e-06,-9.794841952492625126e+00
-8.667187640679666706e-06,-5.490707077478673090e-07,-9.794844058087999628e+00
1.909166277086508570e-06,9.269569660615332800e-06,-9.794842843905485097e+00
3.910673623550886325e-07,-5.211778238012464785e-06,-9.794837189465992466e+00
2.448166259470502893e-06,-7.297482763758345480e-06,-9.794836103540427885e+00
3.454366299045878007e-06,-8.811083859531218631e-07,-9.794852359054802449e+00
-1.466969166533357011e-06,1.031652633991039119e-05,-9.794830115272528559e+00
8.518398191639085876e-06,3.944686172429034819e-06,-9.794836952646765127e+00
-5.996694070502093595e-06,8.216064671246902748e-06,-9.794838556937399687e+00
4.058725173775125291e-06,7.361397045236888773e-08,-9.794836014312995331e+00
3.712989963715917305e-06,4.032725012217828967e-06,-9.794842817144399305e+00
-3.106202234068755635e-06,3.776652253647215016e-06,-9.794845772007496620e+00
-3.490481065978870771e-06,-1.636748674790542516e-06,-9.794835800508534973e+00
9.964720639741961981e-07,5.168109482692227512e-06,-9.794851812841848471e+00
3.091460417103724955e-06,2.271299267481205510e-06,-9.794846952528386552e+00
-8.444543528360587144e-07,3.581854951826882585e-06,-9.794847456288726661e+00
2.000941522744156863e-07,6.155377648069017717e-06,-9.794836609462649335e+00
4.605234796445566420e-06,1.219344440074553058e-06,-9.794848118664781111e+00
-2.484601998328126318e-06,2.350788971452247323e-06,-9.794845341089658319e+00
-3.608504143122434529e-06,8.004113332438633286e-06,-9.794842040025685037e+00
-1.830199845171848622e-06,-2.605844085730431068e-06,-9.794839631204855124e+00
-1.987979036532399636e-06,1.883331966158786439e-06,-9.794839703199452075e+00
-3.582429971157560177e-06,1.091595556989771796e-06,-9.794835195279430806e+00
5.010102130970716275e-06,-8.162251118636126086e-07,-9.794841192737539615e+00
-4.060734973853505609e-06,5.975338753144545814e-06,-9.794838324365814586e+00
-1.280573510937098714e-07,1.883084717226850415e-06,-9.794845465616999647e+00
-2.294158201858957778e-06,-4.856409885636215725e-06,-9.794844363092730433e+00
4.414459072156704927e-06,-2.278724379840116409e-06,-9.794841317993283170e+00
1.354904200000039312e-06,-5.165546599012610713e-06,-9.794844205665121706e+00
3.197634096753589234e-06,2.615352782432973606e-06,-9.794842587592651029e+00
-3.094579969366807254e-06,-3.039780592833571479e-06,-9.794841697473964715e+00
5.611141182718184880e-06,-2.808239516417465532e-06,-9.794840166697198924e+00
5.749199355837187711e-07,3.332459118174757721e-06,-9.794838678280193278e+00
4.975932587619936555e-08,2.886175918035214431e-08,-9.794836935329069405e+00
1.121400716816174970e-05,-3.463138846223506183e-06,-9.794837682726109662e+00
3.545567396773251594e-06,-1.164045276440562284e-06,-9.794842366222741958e+00
2.456116684778319558e-06,2.818005735324067718e-06,-9.794837690935420227e+00
2.153488626870803062e-06,-9.830629027717898011e-07,-9.794849353317403029e+00
5.625840025932987542e-06,-7.981837554466183248e-06,-9.794839151006160094e+00
-3.538056630728424051e-07,-5.580453880181763706e-06,-9.794834104067016156e+00
6.279311482564120872e-07,-1.855301994651557520e-06,-9.794845115405994562e+00
-4.298016512193358930e-06,1.777643899666121781e-06,-9.794837289101176125e+00
4.435415137871862113e-06,1.884351218272845810e-06,-9.794840937702542050e+00
3.694715022642496547e-06,9.407378666067901371e-07,-9.794844818705735534e+00
4.339716107043429303e-06,7.476875552713902005e-06,-9.794835536708628609e+00
-3.240085439744226781e-06,3.099153165653362412e-06,-9.794840887768204496e+00
-4.374320819382114367e-06,7.943888397642150738e-07,-9.794835407689246765e+00
-6.095577495000484422e-06,-2.032196287624752844e-06,-9.794841283488068484e+00
5.573680527879940049e-07,1.224379801535551803e-06,-9.794840116988924095e+00
-1.215278113961238556e-06,8.414830511128853960e-07,-9.794844640941169800e+00
-2.398049055063717229e-07,3.865931730438694693e-06,-9.794837075947613769e+00
2.799355365716413706e-06,1.129312431488702881e-06,-9.794843904929056322e+00
1.071859020176403356e-06,6.317938443372069290e-06,-9.794839665392277794e+00
-1.351226037455771681e-06,2.121129419705624184e-06,-9.794839411829103781e+00
4.237419532403886900e-06,-1.692067695725520234e-06,-9.794841068588704402e+00
6.130513056902738846e-06,-6.679527248311464934e-06,-9.794841517662852937e+00
5.551248400176439207e-06,1.352217565341166477e-06,-9.794844485994630645e+00
4.407474301418687960e-06,-3.998675212224202645e-06,-9.794841104556160971e+00
-8.224221101673701165e-07,-2.995478290731296242e-06,-9.794843563554673338e+00
3.957574963383557633e-06,7.341095432207328523e-06,-9.794851119776772919e+00
-1.112601706412704090e-06,6.952984614586739143e-07,-9.794842034939717834e+00
5.970290472709758121e-06,4.990536206490192532e-06,-9.794851064157210629e+00
-3.841131294812136640e-06,3.446934204559013124e-07,-9.794833790072889457e+00
-5.496326440741430372e-06,8.502694061737907978e-08,-9.794844265147073514e+00
-2.448300774929073145e-06,-6.826107397909662779e-06,-9.794840780857560603e+00
-2.171252207389360534e-06,-2.821873365282345601e-06,-9.794838765543808279e+00
3.707903854836879041e-06,-1.174294651236604359e-06,-9.794844953734164861e+00
4.382438861494289468e-06,3.277099945381096688e-06,-9.794839268725821668e+00
-1.910606271736401292e-07,-5.820991749107165204e-06,-9.794841224212284203e+00
-2.380870935028402352e-06,6.833793399824602660e-06,-9.794845348249211270e+00
-6.956343823976449672e-07,-6.137061459768525834e-06,-9.794839020990957934e+00
1.661582635717372224e-06,2.818528358669305476e-06,-9.794840160813597763e+00
-2.229516362900630499e-06,-5.070388812702831783e-06,-9.794841019424813666e+00
6.622108229753665542e-07,3.423932390657842549e-06,-9.794840303210733623e+00
6.718168491557015275e-06,-9.461921709595775729e-06,-9.794842235037489075e+00
4.174135847855083675e-06,-3.184582595882755333e-06,-9.794842572142066217e+00
2.000782820714943571e-06,3.946046569473570664e-07,-9.794843096684854089e+00
-1.043548085252672730e-05,-1.773429408434456528e-06,-9.794841003494143550e+00
8.245771268670863924e-08,2.893188291893523280e-06,-9.794845222981368948e+00
-6.025561524723808435e-06,-7.333894919057430619e-07,-9.794842890851553463e+00
2.951514069676292420e-06,1.885806673681624960e-07,-9.794838286604290900e+00
-3.790631884853667976e-06,9.630086841009761570e-06,-9.794839237871853399e+00
1.104158594766277981e-06,1.197682878077074042e-07,-9.794846914526953441e+00
4.353792645672511163e-06,-5.567850625488923956e-06,-9.794846415431660347e+00
-2.549932521048384272e-06,4.403286398229235750e-06,-9.794846683415434185e+00
1.466034667281723682e-06,2.392503415428064792e-06,-9.794843691852083367e+00
1.469707682338366586e-06,1.069594250335051671e-05,-9.794842221139679950e+00
8.045410087265119977e-07,-5.124603640078772898e-06,-9.794835659832045849e+00
-1.318038510581125651e-06,-9.228304801436978753e-07,-9.794843498123929848e+00
-1.052541595256025968e-06,3.788888244819872807e-06,-9.794840034329940437e+00
-4.294285040495797668e-06,-2.029082270272261837e-06,-9.794839116483320396e+00
-3.420603322777845494e-06,-1.597840966403655592e-06,-9.794844688062882554e+00
1.922636051472169660e-06,4.927081354180587140e-06,-9.794843574962255772e+00
6.948577523899702881e-06,-1.350799224519891660e-06,-9.794843696432023350e+00
-7.790249889549849526e-07,-4.661660530641955635e-06,-9.794837045362575267e+00
5.319453872814506903e-06,6.145868086450246670e-06,-9.794844625793011517e+00
-7.807366273648835645e-07,4.180487873351099804e-06,-9.794842583278542847e+00
-4.662595443500980742e-06,-3.559330274945181491e-06,-9.794850186870284858e+00
-4.783702652772730713e-06,6.024564354114753444e-06,-9.794845762295826930e+00
-3.148631173493424768e-06,-5.948908855272507816e-06,-9.794844014573675040e+00
-2.203165196285696052e-06,7.915593178522256477e-06,-9.794841205400761197e+00
3.220016789264672706e-06,2.478434754663845058e-06,-9.794846253792400148e+00
-2.469631554969089910e-06,-6.438460224764618317e-06,-9.794843607063485891e+00
-4.871457921863060507e-06,-4.102293612876966882e-06,-9.794848341157837979e+00
-3.466986780775735554e-06,2.083996588825138612e-06,-9.794844857396670434e+00
7.651035139217775964e-07,2.940576610835409878e-06,-9.794843184963619720e+00
-3.238784303183281982e-08,-4.957063690420021342e-06,-9.794851775304861619e+00
-6.771246864649874409e-06,-7.093644001741875811e-08,-9.794840996282021095e+00
-4.819593333314714926e-07,3.245315628519918585e-07,-9.794847154990760529e+00
4.826347511495285297e-07,8.301971953672529439e-07,-9.794850141022589440e+00
4.431904380275436566e-06,3.085251530638845444e-06,-9.794842435002722780e+00
-2.226087303051789243e-06,1.856006829660160320e-06,-9.794838218030918142e+00
-6.601829588093637604e-07,6.536479640251045168e-06,-9.794837812920324183e+00
2.086276241572129186e-06,-2.001319769424886906e-07,-9.794843298128373732e+00
5.981917571754580740e-06,-8.115209995900086619e-06,-9.794839117285743413e+00
-3.751621385698174710e-06,1.975358901435668496e-06,-9.794841471152812673e+00
-7.918061509535328712e-06,3.820209319617336986e-06,-9.794841164899631636e+00
-8.855327920579058196e-06,-2.071622628547503801e-07,-9.794841413334191671e+00
-6.161454330062808694e-06,-2.195092854933620123e-06,-9.794844591364514130e+00
-5.937400148169641439e-06,-6.288655038418134623e-06,-9.794838658581987545e+00
-9.434978888717325893e-06,1.646723835749513881e-05,-9.794840868873285089e+00
-3.098633081781716020e-06,1.526330492663330316e-06,-9.794842627945239855e+00
-2.935488550763427689e-06,-4.840912697600362869e-06,-9.794839182317945259e+00
-7.550107395999382591e-08,-3.999464103297650245e-06,-9.794838290689858340e+00
-2.732410552996920547e-06,1.552808680724793886e-07,-9.794840446909930165e+00
-3.690728472470717415e-08,6.691665788524098896e-07,-9.794846291377957925e+00
-3.658605524641113870e-06,-4.049121386400298647e-06,-9.794834856927238320e+00
1.117717838473675079e-05,8.794590999018686185e-08,-9.794839522758680417e+00
3.844695295945773473e-06,7.049160363350907637e-06,-9.794836123416544638e+00
1.712873629130564087e-06,2.082571036183171873e-06,-9.794833282607871894e+00
-5.443496354704301717e-06,1.079641339050702477e-06,-9.794841765252419563e+00
7.422633459557654962e-07,4.666002180869543436e-06,-9.794848065354608835e+00
-6.314505800896733591e-06,-1.056513600318464018e-06,-9.794843342734203873e+00
-9.963239224170222013e-06,9.976441323997698905e-06,-9.794844796167177847e+00
3.324620558335245198e-06,1.018089596936770155e-06,-9.794842075456386965e+00
-6.097936569390445426e-06,4.430207419236975755e-07,-9.794848514477834556e+00
6.555300080064266740e-07,6.379537413455261099e-07,-9.794838064531660393e+00
4.504207321168261176e-06,1.256189316398450580e-06,-9.794842630790423499e+00
-4.439723949868518340e-06,4.943069211397008115e-06,-9.794840909550980967e+00
2.794762141955054322e-06,4.238787028685996664e-06,-9.794845585976686309e+00
3.595499033882957217e-06,-1.345677948997188739e-06,-9.794846683933990050e+00
3.445963437270967906e-06,2.163767737338651504e-06,-9.794843718586406567e+00
-2.801613989234501729e-06,-5.957733881404591344e-06,-9.794847663412006966e+00
7.132079946625559420e-07,3.901493339013949276e-06,-9.794848335195663225e+00
-6.246905071875611560e-06,3.760674115602345950e-06,-9.794836009967072599e+00
-7.380373146733469429e-07,-3.935929412902010731e-06,-9.794851848876383826e+00
2.705009266506259189e-06,7.726024102593124436e-06,-9.794843340964028755e+00
-1.524361042152953074e-06,2.882552369082752212e-06,-9.794842336253505977e+00
-2.716887290517541830e-06,-4.906815055623557124e-07,-9.794842352171597710e+00
-2.407448518279659414e-06,1.679242451682924011e-06,-9.794844068358647959e+00
8.390020258824355055e-06,1.506384388037826588e-06,-9.794833420861492002e+00
-1.644664745868926861e-06,6.825602848022244444e-07,-9.794845907347401237e+00
-2.093897747139033638e-06,1.634070757943680743e-06,-9.794836070814444184e+00
3.968734041899522663e-06,-1.433376191870113789e-07,-9.794845737493471205e+00
3.459264655089403341e-06,4.114113922507560378e-06,-9.794846341536365131e+00
5.356724157067727230e-06,-2.035521973441519539e-06,-9.794843543561071897e+00
4.879684981867024718e-07,-1.028698008796279971e-06,-9.794844053327652844e+00
-7.421283937898919287e-07,-3.244952798655325186e-06,-9.794846581919481210e+00
-1.417523336611245585e-06,-1.612080842412379053e-07,-9.794835351068032381e+00
-3.519128467531069261e-07,9.360238964217488486e-06,-9.794830852132172083e+00
5.291145789172944665e-06,5.590902004828977784e-06,-9.794840697324552536e+00
-6.077380051923008615e-06,1.739315344342839323e-06,-9.794843963457239511e+00
-6.594851712437323447e-07,-1.283613001932296473e-06,-9.794842847789933415e+00
-5.974224330710315974e-07,3.121949953684820171e-06,-9.794837290447370393e+00
-5.576121754938380999e-06,4.670360203952548637e-06,-9.794836332189646555e+00
2.822058373330670790e-06,-3.130877343964809952e-06,-9.794839815414778883e+00
2.381899938723240353e-06,2.649144344659632518e-06,-9.794843378839297898e+00
-4.980353018711020030e-06,2.761975849133773968e-06,-9.794838420866669892e+00
-7.721849160414413351e-06,3.240061192783066236e-06,-9.794838615009346938e+00
3.756493556796687081e-07,1.610533048910373755e-06,-9.794840432471136893e+00
-4.480296897366127640e-06,8.237173671092016137e-06,-9.794842726881315187e+00
1.092213831775888305e-06,-5.054197046837638835e-06,-9.794842753702345917e+00
2.858236329131536144e-06,-3.884915422423231975e-06,-9.794843051838237002e+00
-6.933115680851914265e-06,-2.267820666992336706e-06,-9.794842257740070224e+00
-4.287908736677607287e-06,-1.481172896704087288e-06,-9.794840377105876073e+00
1.535720464573600209e-06,-6.148529222005465901e-06,-9.794849384182757746e+00
8.559924814972757626e-07,1.792984086233801320e-06,-9.794842472721109417e+00
1.259567843920298868e-06,-5.565536589931881899e-06,-9.794844585083737343e+00
-3.095507535698135105e-07,-3.517845391086401200e-06,-9.794833972642567943e+00
-5.740310479590352655e-06,-2.505095501056333664e-06,-9.794831407935754797e+00
3.595809743942102896e-06,7.671470352128940620e-06,-9.794844848183167585e+00
-2.763038185642994123e-06,-5.102862268068067372e-06,-9.794836822672175813e+00
1.231968322435714053e-06,-2.274195928464842174e-06,-9.794846894802590853e+00
-1.958122244834673202e-06,-2.600512020598176685e-06,-9.794851075615152780e+00
-2.545495436977214696e-06,-8.573727693639892887e-06,-9.794840634936882395e+00
-3.723028568163978855e-06,4.249739387732254890e-06,-9.794842927199535865e+00
-2.641180865345727672e-06,-4.990976234918117565e-07,-9.794846920128984280e+00
3.084213041711331732e-06,-4.982108607647203586e-07,-9.794832955977918587e+00
3.114710244640065431e-06,-1.028729442245956836e-06,-9.794845906055677176e+00
-2.226576122434258107e-06,3.501499464371892378e-06,-9.794839967159491678e+00
8.615799991223064668e-06,7.603012541853151441e-06,-9.794848064387636555e+00
2.737748233792901623e-06,7.882037132327178019e-06,-9.794836398868479677e+00
-1.294779864434373412e-06,-6.339520757323173402e-06,-9.794837364842962302e+00
-5.031098632187278250e-06,-2.366098149250636255e-06,-9.794842284897908868e+00
6.191255381448976749e-06,-4.414815073811404627e-06,-9.794842608189611610e+00
-3.785135149868335723e-06,7.359477488424732900e-06,-9.794843818499568755e+00
1.058565141320994767e-07,-7.315118073145702032e-07,-9.794843885479931345e+00
-4.263424968525874965e-06,5.579920239175785780e-07,-9.794838642869850176e+00
-2.774805861376349097e-06,-1.616743829622285649e-06,-9.794841586889093676e+00
-7.385082698649244347e-06,-4.628411416973023413e-07,-9.794846300589357568e+00
-6.331486888134913018e-06,-1.031932279353729970e-06,-9.794825683716364750e+00
9.608459279546504577e-06,3.271500486647850399e-06,-9.794841345663618526e+00
-3.188374267644274199e-06,-1.221619525973061154e-06,-9.794848892352716163e+00
-4.609921662010550983e-07,-5.762063335216607443e-06,-9.794846981173485290e+00
-1.014875230394560346e-05,-6.731412070255573128e-06,-9.794846198805982951e+00
-4.454588993219162020e-06,-4.682692068138899529e-06,-9.794840390667850727e+00
3.091354603339003046e-07,5.443366645368054738e-06,-9.794840307141237545e+00
1.083929654465068212e-06,-1.674471827795907092e-06,-9.794842511277250807e+00
-5.046349446478036043e-06,-1.822489503555626144e-06,-9.794842103876982620e+00
4.061389187945453559e-06,-8.941071126430874132e-06,-9.794846107045069417e+00
1.192079718571936446e-06,-1.737574310109748873e-06,-9.794840765199197108e+00
3.108975421361183210e-06,2.883674590449096829e-06,-9.794843515902069697e+00
5.660858301559166808e-06,9.540256549614109673e-07,-9.794839646889357709e+00
5.110050702744373931e-06,-1.113531289019664621e-05,-9.794838984734868248e+00
8.241147654239744663e-07,2.720439937865087623e-06,-9.794844179608436008e+00
7.348537751491625829e-06,2.380925134601892986e-06,-9.794838410846711696e+00
6.236404250442015756e-06,1.472248199687900970e-06,-9.794835044398169543e+00
-9.590979242513319788e-08,-1.505004452034073640e-06,-9.794847121371583754e+00
1.264601101476792945e-06,1.203122784724982729e-07,-9.794840733655714615e+00
-2.238425587956941606e-06,-1.244331593674964591e-06,-9.794843654284624890e+00
1.111029898886293206e-06,-6.424464757908178583e-06,-9.794842186871756340e+00
-1.248885594114565719e-06,1.749441694090435992e-06,-9.794842941155296856e+00
2.647634209167544143e-07,-3.905764857112444304e-06,-9.794846214448295285e+00
1.005524072903544465e-06,-1.799936268220333781e-06,-9.794845860720300834e+00
-5.984858515160584362e-06,1.325342870595820038e-06,-9.794842628331213774e+00
2.328835912783960632e-06,-1.850476497362970859e-06,-9.794839995487144790e+00
6.707326662281996408e-06,4.908363776411118644e-06,-9.794848874437267483e+00
-4.176902344902772598e-06,2.274627371989650928e-06,-9.794844326541484847e+00
-2.846234812444965494e-06,-6.294726982889082095e-06,-9.794844380270120610e+00
1.231596038743156233e-06,-2.983320217539356119e-06,-9.794840470435257629e+00
-8.602569758218013793e-06,4.000861506385664276e-06,-9.794850459353037664e+00
1.255437799996531384e-06,5.542725252714906829e-06,-9.794839523197012454e+00
6.668094109456135572e-07,-4.592402123390309857e-06,-9.794842702701217263e+00
8.474350386581944393e-07,6.296544985458523291e-06,-9.794846797281582695e+00
-9.002696851427493207e-06,-6.648983312546852751e-06,-9.794843156375442561e+00
-3.565596751438786756e-06,6.033529296673322044e-06,-9.794845587767589734e+00
-1.108128572905010359e-06,-3.104029108599613329e-06,-9.794843088183997182e+00
9.257874340086142830e-06,-4.158528016970342374e-06,-9.794841356582466574e+00
-6.279542379789987470e-08,7.946064872773019719e-06,-9.794845889778555303e+00
3.610366729478832485e-06,-3.592810743226883113e-06,-9.794850009563960569e+00
9.961654160695854087e-06,-1.610806816858543331e-06,-9.794841540881499498e+00
-3.801727470279015906e-07,3.528139295000768758e-06,-9.794847035308702488e+00
5.493660577990922724e-06,1.019595884357232171e-06,-9.794839706529581136e+00
5.764873957083924804e-06,-8.549555087544879017e-06,-9.794841299864408768e+00
4.462276218818138487e-06,7.108728780031490796e-07,-9.794842341871719427e+00
1.398262886693184304e-06,-3.743950450963542014e-06,-9.794846423246555744e+00
-4.558280321584905391e-08,1.748312273517193027e-06,-9.794841707398484587e+00
-1.384285246403418370e-06,-8.115863821368003025e-07,-9.794845516969612476e+00
2.742713886509952574e-07,8.338187277147384967e-06,-9.794844154904955857e+00
-3.679011513749777785e-07,-6.993581835532948590e-06,-9.794844459991061569e+00
-2.179693843843650185e-06,6.618014319789072127e-06,-9.794837517437827046e+00
6.104720721203573637e-06,1.967412911690074709e-06,-9.794846427903223685e+00
4.036337182045705255e-06,-5.659463737089188168e-06,-9.794841061406065919e+00
1.298463587194236179e-06,-5.297456615440869168e-06,-9.794847028706158198e+00
4.707054049278142614e-06,-3.458864224108783026e-06,-9.794842847144842324e+00
-7.375495998730440169e-07,-6.239465171678405746e-06,-9.794836383292182092e+00
-1.738637807433419555e-06,-4.997169799013558898e-06,-9.794846152515413351e+00
4.587810523890976689e-06,7.467289320136695309e-07,-9.794836983050092982e+00
-3.940415120206732157e-06,-3.324947358827246022e-06,-9.794848083852571108e+00
6.836457938581424794e-06,1.538766954452681481e-07,-9.794838995538661663e+00
1.364991052873179372e-07,-2.879654068703461254e-06,-9.794837111342117097e+00
-2.077099066067581991e-06,-2.413775531388377253e-06,-9.794845460322711972e+00
2.599143148755935457e-06,2.866922055716598862e-06,-9.794845571127565265e+00
-1.013901737316602699e-06,1.517462994656285884e-06,-9.794842418443986176e+00
1.758688704511039003e-06,-3.949853106758972874e-06,-9.794839429984021351e+00
3.507627700219969577e-06,-1.213181109862835049e-06,-9.794843308011216720e+00
3.480075558447892386e-07,3.449110838552071374e-06,-9.794836247358105652e+00
9.982746516566291407e-06,-3.623269766918246729e-06,-9.794846292237576080e+00
-1.924371505683298963e-06,1.809196417524653902e-06,-9.794837582249030561e+00
-2.690908251417312706e-06,4.899427847605356611e-06,-9.794845376490915356e+00
3.921515776133761864e-06,-6.466380531546148459e-06,-9.794841650641453512e+00
1.257194903212075922e-06,2.475985024737194777e-06,-9.794841503776188674e+00
-1.885447703246680470e-06,-3.247229989396485383e-06,-9.794840848949954548e+00
-5.332066758811450853e-07,-2.907217081689008265e-06,-9.794842651064469052e+00
2.164807747456379923e-06,8.790876998003397631e-07,-9.794841331704327914e+00
-4.457574569737699597e-07,-4.220301442413381726e-06,-9.794842876968552048e+00
-9.796227672901404752e-06,4.776286306799315766e-06,-9.794838887396336347e+00
-4.236260355227661989e-06,1.712364049492921757e-06,-9.794842190807750981e+00
-3.168861639351364226e-06,6.152978403203802805e-06,-9.794847199366985890e+00
1.913141034819154693e-07,4.799936968920732270e-06,-9.794845828978274938e+00
-1.703232117826415519e-06,-9.013085703873588767e-07,-9.794845617292740059e+00
5.750578159404989870e-06,-2.776537538396616000e-07,-9.794842372860003366e+00
5.490066072023090460e-07,-5.351634850175216953e-06,-9.794839979966921462e+00
7.164273642094126594e-06,-7.103235428770709140e-07,-9.794848590449820591e+00
-2.518318267016792402e-07,-3.774885193376992370e-06,-9.794845638932510923e+00
4.607070171140500543e-06,-5.238153468945076446e-06,-9.794847627277817992e+00
-5.190243156911107748e-06,2.320802453797668483e-06,-9.794837495474455480e+00
2.960874976480488930e-06,4.006476931664710751e-06,-9.794847539316162255e+00
7.220426571592178176e-07,-4.281431543984286129e-06,-9.794836814765531585e+00
-8.312067001010918304e-07,2.477399887869468206e-06,-9.794840337241312866e+00
-7.349218907988798264e-06,2.127245925918238754e-07,-9.794848452604338007e+00
-3.356549100330962653e-06,-1.517593343800353573e-06,-9.794839742885969258e+00
7.442902118989108308e-07,3.416850833097948883e-06,-9.794840719884366109e+00
-2.758041638507308948e-06,3.219245121151888798e-07,-9.794838356581387018e+00
-5.111308974688101857e-06,5.444274362348347038e-06,-9.794839657540441280e+00
1.186824351265845886e-06,2.450240055836732170e-06,-9.794848984138342374e+00
2.904263056675252663e-06,3.720573516921059040e-06,-9.794842621321034670e+00
9.581289156615571147e-06,2.390450717333537515e-06,-9.794849864639438408e+00
2.909857288556917327e-06,7.278059161555940140e-06,-9.794847376348778667e+00
-3.551571503973548413e-06,1.347650890861614804e-06,-9.794842573000435593e+00
4.334042440147356767e-06,3.578825089431072218e-06,-9.794845322137543775e+00
4.465297733993524308e-06,-4.264711815444819554e-06,-9.794844956872930553e+00
-5.025213833685116953e-06,-3.565685720392006729e-06,-9.794843298865377079e+00
8.078357040283310961e-06,1.251134195117352211e-06,-9.794842573263689900e+00
-4.664875343602340409e-06,7.676485553530710724e-06,-9.794847546718543185e+00
1.554459824607827304e-06,-8.446933087142851077e-07,-9.794838400126783640e+00
-8.046951994287011525e-06,4.244225318311339346e-06,-9.794850329998109117e+00
1.067461823212560176e-05,-3.854636260804120714e-06,-9.794840308960884201e+00
3.600330922478577647e-06,4.849866142464505389e-06,-9.794842012122773056e+00
-2.161700101893030049e-06,-4.727793732301542456e-06,-9.794836096809149240e+00
-3.467077343445551921e-06,1.930097744818624548e-06,-9.794845217684319039e+00
-4.411990919707403008e-06,-2.084764700256208187e-06,-9.794844377284331216e+00
4.609914346857601225e-06,-4.048079782734052277e-06,-9.794843773803359355e+00
2.012790039130898773e-06,-8.099488378410749252e-06,-9.794847905904147112e+00
-3.038773650818135516e-06,-1.062714940912869845e-05,-9.794842969312743008e+00
-7.525667530509274280e-07,5.421680259068386661e-06,-9.794846503211021016e+00
-1.939908069997640694e-06,2.320038837845076703e-06,-9.794840205279792045e+00
-1.979216361110508040e-07,-3.309862093671544650e-07,-9.794842520315189205e+00
-1.953726011369243308e-06,-2.708903902415415011e-06,-9.794840938540408715e+00
5.397992427558379770e-06,9.863953592430285670e-07,-9.794838922549635285e+00
1.843938845057958255e-06,-3.253435798080468235e-06,-9.794837277217975924e+00
3.708734030759415169e-06,5.343360242447316341e-06,-9.794844891233953632e+00
3.270362396708903075e-06,3.721686232407803072e-06,-9.794843916348710877e+00
-2.261104828205876845e-06,-2.641443010217937958e-06,-9.794846456024645320e+00
6.641493886829655130e-06,-5.996783839269837007e-06,-9.794830686437608236e+00
-5.308455543677674071e-06,3.289351856669008710e-06,-9.794842714639651504e+00
4.242062292557703028e-06,-2.425563522910942999e-06,-9.794838728331829003e+00
-2.444023230973810494e-06,3.285128757263939834e-06,-9.794841625478943214e+00
-4.261207261596159512e-06,2.880115994214204003e-06,-9.794843171682348526e+00
-3.547361277458505018e-06,1.714510267690806118e-06,-9.794847938187366765e+00
7.063962016097974508e-06,-5.071523791989686075e-07,-9.794838803502306845e+00
1.537136500025477480e-05,3.262118652379602869e-06,-9.794844198472109298e+00
3.756409653677868096e-06,-1.760945081322754598e-06,-9.794840454914131911e+00
1.287621412262800361e-06,1.151902493246251300e-06,-9.794842390841402846e+00
1.403087942400245777e-06,5.063415600463971965e-06,-9.794841342779116999e+00
-1.460698312163456674e-06,-1.877895473162095468e-06,-9.794840805677939244e+00
3.422693137684990306e-06,-1.056049555761710270e-06,-9.794837312999247203e+00
3.178276373916870259e-06,4.225289235459421389e-06,-9.794844143998769681e+00
-4.938174915986979898e-06,-1.101518304368899864e-06,-9.794845609679759590e+00
-4.804961897373775211e-06,6.272970394348243919e-06,-9.794836764326568357e+00
-1.653402236126689004e-06,2.868416873653046777e-06,-9.794845365715259433e+00
-1.412693700811477529e-08,1.762956214046853293e-06,-9.794842985283358061e+00
-3.154156286940521928e-06,1.709564617571005433e-06,-9.794846742880588764e+00
5.655949480516767653e-07,-3.236420929236281588e-06,-9.794846276420036801e+00
1.827885293348294670e-06,-1.001470235548210933e-06,-9.794843074995730703e+00
-3.618327466784190774e-06,3.754323599958928908e-06,-9.794849158532588973e+00
-1.225158467336722322e-07,2.270916949547135009e-07,-9.794842500253027495e+00
4.594518461753722699e-06,-1.547278679841552480e-06,-9.794842550791322822e+00
-1.352543186883133415e-05,3.014025884094434587e-06,-9.794843971513072844e+00
-6.692902468291542775e-06,-2.376809702256081873e-06,-9.794837432822482981e+00
-4.909417948310487813e-06,3.416057083621787045e-06,-9.794843414887669297e+00
-4.650131024889047951e-06,3.114292895686028649e-06,-9.794844622711238458e+00
2.449244770526196956e-06,4.534705617630010733e-06,-9.794844610958758579e+00
-1.840696193526672665e-06,3.452111419450128104e-07,-9.794844008973866423e+00
3.541986625816376926e-06,-2.845153234842865401e-06,-9.794846372583272398e+00
8.441900525778658026e-07,-1.421333756626893639e-06,-9.794841796053272986e+00
-8.002958806231251575e-07,2.258583980647682238e-06,-9.794849619510069161e+00
-2.816626934253687994e-06,-5.790977696247349395e-06,-9.794844879736494647e+00
-7.593002125856856792e-06,-4.013423143916961626e-06,-9.794848051618519236e+00
-2.518750103133663786e-06,3.501479970737662182e-06,-9.794847415873668695e+00
2.712921546219591934e-06,-3.750682314216382132e-06,-9.794842305929140736e+00
8.758366378232467007e-06,4.405048812824665137e-07,-9.794838520574547402e+00
2.099474191591877032e-06,-6.714787269288230856e-06,-9.794843819577803146e+00
2.878336191988561702e-06,-4.968942968368843452e-07,-9.794847850009007928e+00
-1.664182490155151762e-06,3.195569105440113558e-07,-9.794839440295294963e+00
1.266255048332923382e-06,1.142331692004666382e-05,-9.794835169395982533e+00
-7.595033118457723248e-06,-5.999871381872245927e-06,-9.794845031337249708e+00
2.822944900749939187e-06,-2.478755769318912405e-06,-9.794848992307873203e+00
-1.113431710148482805e-07,-4.466706881999242883e-06,-9.794848452190324295e+00
6.489165673571807748e-07,6.024755715075298137e-07,-9.794848842223830232e+00
4.925262936830615227e-06,1.125545489204527975e-06,-9.794845414177709486e+00
9.631593713488436882e-08,-1.821058968413482989e-06,-9.794840810316886248e+00
-5.939280096883284098e-07,-4.931055000646444877e-06,-9.794843870724092127e+00
3.711988244896344152e-06,1.927471505419726472e-06,-9.794841316771886852e+00
3.733213013280999560e-06,4.946136370078934543e-06,-9.794839892276714366e+00
3.174207686990921150e-06,-1.497856600497622746e-06,-9.794840252086746801e+00
4.802597581196702217e-06,3.183036759202887574e-06,-9.794843624505190860e+00
7.849784467672870568e-06,1.990991471757332322e-06,-9.794838376176782546e+00
3.354141181787247654e-07,-5.032743511136148771e-06,-9.794842503546501433e+00
-2.322747109441468819e-06,-3.798546727594393429e-06,-9.794844486174012488e+00
4.006772060345876785e-06,-4.577482043136796758e-07,-9.794846540011221236e+00
2.154220808140062981e-06,7.757775324916002955e-06,-9.794838595836759865e+00
6.237099473676005202e-06,5.491585525242128578e-06,-9.794843668438844020e+00
4.744352217062351410e-07,3.433124849350423500e-07,-9.794840821674455356e+00
-4.278116193391027192e-07,3.162630066599640477e-06,-9.794840893536989057e+00
7.740630959611632559e-06,-5.697654859733102290e-06,-9.794850337767337933e+00
-2.890118982762485197e-06,2.846414615443587496e-06,-9.794836566664088195e+00
-3.835815905503662699e-08,3.696098847196710924e-06,-9.794834098239626030e+00
-2.025315093929249268e-06,7.551969825850093899e-07,-9.794845413944363699e+00
1.185744094088540781e-05,-9.316716879145692225e-09,-9.794842806640609467e+00
4.222161742140735711e-06,-2.767052750002417076e-06,-9.794840719472709623e+00
1.589835857431530630e-06,-4.755256518972193977e-06,-9.794846688092324172e+00
-6.804800798790903657e-06,-5.692849291227813873e-06,-9.794844599612776648e+00
-4.636494177207831332e-06,-1.024676287509024373e-05,-9.794840585106447506e+00
5.137632934191540391e-06,1.071368077138773382e-06,-9.794835752754417868e+00
3.211823806307251526e-06,-6.158764047342040940e-07,-9.794846469371574216e+00
-1.701578647054189445e-06,2.888954982729002888e-06,-9.794842746572468783e+00
1.700891272683901801e-06,-4.287310565467453461e-06,-9.794842393597903651e+00
-4.212161706877299010e-06,-2.578228211311875938e-06,-9.794838716981466575e+00
-3.334736650977081925e-06,-5.852213166314672913e-06,-9.794840992666630441e+00
-3.539142874693200344e-06,5.873245536546665700e-07,-9.794836257249944111e+00
5.082846788878992941e-06,-4.729034236927944130e-06,-9.794836077495052251e+00
9.555828191020518037e-06,2.731941371525942544e-07,-9.794845353893009587e+00
-3.178256706049916917e-06,5.103524748161235388e-07,-9.794842077082535070e+00
3.611961989015215644e-06,-1.339222533399917633e-07,-9.794845256104512288e+00
-6.010309051111581962e-06,-1.768711098386302213e-06,-9.794838822535083978e+00
-2.324871805189778018e-07,7.802494594309231318e-06,-9.794856851413495491e+00
-2.889840057103231072e-06,6.268029568781463769e-06,-9.794850009540297719e+00
3.280592303591346430e-06,-2.491568650559544025e-06,-9.794842006882598540e+00
4.459485046194572362e-06,-4.087762718227427212e-06,-9.794847194491332232e+00
4.778377721954068089e-06,-2.645751340886871687e-06,-9.794845288530861893e+00
4.254769275293024211e-06,-6.681292969014040734e-07,-9.794849876572619962e+00
5.967797776152580533e-06,9.644168370496234421e-07,-9.794841434604592223e+00
-1.712965912942776006e-06,-4.598176446339705717e-06,-9.794843222017160400e+00
3.301155417216243911e-08,6.326495518064873783e-06,-9.794849187061016593e+00
-5.313452707475069972e-07,-8.559997497367275094e-06,-9.794842082548177231e+00
9.504508195188068832e-09,-1.805016649453825238e-06,-9.794844301112174634e+00
1.537826962612858081e-06,-6.451710252721850709e-06,-9.794847400262392867e+00
3.379483728060056172e-06,-2.284446357874542901e-06,-9.794844164669097353e+00
-2.258787338295600414e-06,-2.804277686258481565e-06,-9.794848259747823249e+00
-3.570912327708461655e-06,5.587178912492211061e-06,-9.794844582200765259e+00
3.899033259756381692e-06,-2.421532475233807123e-06,-9.794845754295236517e+00
6.674512899486204214e-06,3.040462911680719485e-06,-9.794835872053251791e+00
-5.246261854239444750e-07,-2.742537887800107644e-06,-9.794844507787054511e+00
7.662050542759912469e-06,-1.904543044255933133e-06,-9.794844442403583429e+00
1.540983307613689721e-07,-7.444611205813558986e-07,-9.794843115258183630e+00
2.764659403554616196e-06,-1.801115335691836648e-06,-9.794846208292485201e+00
2.909587243105239027e-07,-5.823989114095030912e-06,-9.794842266182644863e+00
-6.903137777837461636e-06,-6.623819191264069146e-06,-9.794834481860215547e+00
4.056431533783761879e-06,-8.106122851930200757e-06,-9.794846572480844671e+00
-5.523836934069906362e-06,5.434231432337530013e-06,-9.794847019738968541e+00
1.003441112129281253e-05,8.451853240596248642e-06,-9.794849909374351071e+00
-8.315873466534792003e-07,2.726235358054903810e-06,-9.794843871360102483e+00
-1.230743223132844955e-06,7.973421109197702563e-07,-9.794844220994056272e+00
-3.925249645889082742e-06,7.850515355926089875e-07,-9.794839743665853860e+00
-6.192794551049143640e-06,-5.477458066710510506e-06,-9.794845143753867944e+00
7.528404753225843949e-06,-5.989844722330735916e-06,-9.794834416152855994e+00
-9.621384837543627290e-06,-4.594678478549299481e-06,-9.794842959668557114e+00
-6.815619907666130341e-06,-4.292282657841850431e-06,-9.794843908803278154e+00
1.801238698472910343e-07,-7.353846579420339558e-06,-9.794842310185375212e+00
5.872835162915859653e-06,3.676100454948978023e-06,-9.794842464078232780e+00
-1.752699078922800053e-07,1.067102192327678326e-06,-9.794842397006242152e+00
-6.908915021081140886e-06,-5.169737037525202164e-06,-9.794843906925242649e+00
6.278600373258676970e-06,-4.681816954891048266e-06,-9.794839184453977055e+00
-4.046354341329464678e-06,2.899810704639125782e-06,-9.794829855809064512e+00
3.385856924892621185e-06,-7.675078568002942356e-06,-9.794845570331183637e+00
8.309658393453249432e-06,-2.467906016269155229e-06,-9.794841833607431880e+00
2.033060092204437898e-06,-3.336339011531111563e-06,-9.794850137337469675e+00
-2.332819902420168486e-06,7.712140564372975293e-06,-9.794841087397632151e+00
-7.441171303007942405e-06,-7.116135755301305436e-06,-9.794837957746155510e+00
-6.163277151034594465e-07,-1.032114417561742688e-05,-9.794846516564120975e+00
2.467957026285987641e-06,5.299091336540460940e-06,-9.794842088270534930e+00
-2.132672768982668579e-06,-4.729551401609793202e-06,-9.794850805574986552e+00
-3.128982068040736979e-06,-2.883488359927039680e-06,-9.794847132834846093e+00
-5.765996642505862936e-07,-7.414852916909613253e-07,-9.794847401849695601e+00
7.448753531819946359e-06,1.265666899435370598e-06,-9.794846060224831064e+00
6.274024620574558897e-07,-2.091510167748943504e-06,-9.794846447084553986e+00
-3.552438062283435723e-06,-6.188357759790604132e-06,-9.794845158859034839e+00
-6.386496511662469037e-06,5.374528228735391751e-06,-9.794837580584649928e+00
3.080441764954626104e-06,-5.421980986934565530e-06,-9.794854103249976518e+00
-7.715728856359074363e-06,1.377114874895353080e-06,-9.794851534218910416e+00
9.408561750682088275e-07,-5.214114279248827362e-06,-9.794840356418580640e+00
6.220278317698734830e-06,6.134990980411420440e-06,-9.794834921338404499e+00
1.927897865484944980e-06,-1.064091998974439249e-05,-9.794840507934845064e+00
-4.163861044706908915e-06,4.468253693797036094e-07,-9.794850849077128885e+00
8.805268075900861597e-07,-2.609286045306675730e-06,-9.794849002201653221e+00
-1.721033858808355853e-06,-9.200105454097453575e-06,-9.794840589488153171e+00
2.656211862572491905e-06,-9.030701053857293165e-06,-9.794839339838263825e+00
1.419001741999857758e-06,-1.169208888005153999e-06,-9.794846622030238592e+00
-3.229106226601173226e-06,-6.575699986431374764e-07,-9.794845927711278932e+00
-3.194668964817369595e-06,-3.287667136628287633e-06,-9.794846191583864936e+00
4.187034267059979884e-06,-2.183394335210642291e-06,-9.794847049459614041e+00
8.575805125764457372e-06,1.830782539237152693e-06,-9.794841052541436000e+00
6.834192371170650985e-06,3.606884858857841996e-06,-9.794845533130610349e+00
1.978358868927101130e-06,-6.172321677909017057e-06,-9.794847358221725031e+00
4.719294909698664037e-06,-3.839397433571019997e-06,-9.794842142953713804e+00
2.597881693600496934e-06,2.709818655061318720e-06,-9.794851812631332422e+00
1.242057596417314135e-06,-3.385390649366938994e-06,-9.794839336827877219e+00
-2.213430852549224165e-06,-4.163602580081802077e-06,-9.794835030942453002e+00
-9.446164984006354769e-06,2.576017729369457800e-06,-9.794840088208312423e+00
6.715093738471103876e-06,-2.039685636124215814e-06,-9.794841608502768082e+00
7.211694781289196045e-06,-3.366549492977529639e-06,-9.794844797662046076e+00
-2.885975805364339987e-06,6.663754753091324684e-07,-9.794838203293473100e+00
5.706094219004081622e-06,-6.106741947750195194e-06,-9.794842208771578740e+00
-7.210653970934949831e-06,-5.115890706509135801e-06,-9.794845010035254873e+00
6.078364174954415511e-06,-2.444293712216380176e-06,-9.794843222284157491e+00
-1.051720863010675160e-06,-1.858502724186909050e-06,-9.794834941954507102e+00
-9.992479121161788807e-06,3.129289787688029782e-07,-9.794844907654628230e+00
7.177967574037241961e-07,-2.992460328650466056e-06,-9.794841928583096546e+00
-1.266026052625142299e-05,1.235256014712637993e-06,-9.794845136496553195e+00
-3.377329867265133034e-06,-5.179363454406920458e-07,-9.794841251675903138e+00
-3.389674326520429921e-06,-1.221878234701014347e-10,-9.794833280214591653e+00
-1.340098067244544730e-06,3.553767662408853037e-06,-9.794839953663458942e+00
-2.758077423217769478e-06,-2.789578937548162114e-06,-9.794839094573918103e+00
2.395901939410170357e-06,6.263105919893357382e-06,-9.794840113981418739e+00
-6.053989464685837366e-06,4.428277292126920074e-07,-9.794850580316415645e+00
4.933677816432218761e-06,1.552867323397554634e-06,-9.794849777910014765e+00
5.146436200286935374e-06,1.504948245822884858e-06,-9.794839094624052223e+00
-9.089201587544102712e-06,-6.581849856725307364e-06,-9.794838309842138102e+00
2.945233209789250752e-07,-2.101792026195102201e-06,-9.794834793308245580e+00
1.000270084475267099e-07,-3.734885269816678938e-06,-9.794850735838615208e+00
4.857453831751416053e-06,-4.088645120437197221e-06,-9.794853606990578498e+00
-2.111540474743910173e-06,-1.089039413573815825e-05,-9.794844064611112344e+00
-2.021492384670624304e-06,-3.431200811674612559e-06,-9.794838855913541309e+00
2.142053321657668326e-06,1.814766481714894785e-06,-9.794848988164531534e+00
-6.984315566469903086e-07,-4.245655796656773272e-06,-9.794847451072353550e+00
1.060483182708752310e-06,3.813538390043471978e-07,-9.794846967526245507e+00
-5.524264098132483350e-06,-7.340248731142289143e-06,-9.794835967819885525e+00
2.644720305844237450e-06,-2.905721173792654725e-06,-9.794844130254343639e+00
6.828295420790315860e-06,-9.268623703204651400e-06,-9.794835092466948723e+00
8.156325868236314965e-06,1.432277685193274156e-06,-9.794836213260648350e+00
-4.418134686771828209e-06,-8.301538196034165195e-07,-9.794847177439979902e+00
-1.960327994744162285e-06,-3.404742598483406290e-06,-9.794843445646126412e+00
-4.864461963933580608e-07,8.688299517288677874e-07,-9.794831099629888627e+00
1.799532606859601220e-06,1.268749407470101587e-06,-9.794846905362424749e+00
1.110982095998131544e-06,3.033495954264548069e-06,-9.794851957241240470e+00
-5.620937120751675481e-06,6.993671439296692244e-07,-9.794845887765655235e+00
1.265279420135052282e-06,-6.243264183951927174e-06,-9.794843865528362059e+00
6.248710646555755114e-06,-5.954912445490507972e-06,-9.794838932617908611e+00
4.272841853065914492e-06,3.168271385101462770e-06,-9.794834023315937443e+00
-2.421226844433022906e-06,-2.142573353030330385e-06,-9.794838567824362130e+00
-5.009384343475579683e-06,-7.043481684232915887e-06,-9.794845428740734050e+00
3.895132734268044989e-06,-4.344380919805781801e-06,-9.794841914696437613e+00
-2.339461917396980657e-06,3.930492227616636350e-06,-9.794844194186845598e+00
3.789519243448035029e-06,-4.485068180311435203e-06,-9.794847603748451093e+00
9.009340255527320670e-06,-6.942575701427955856e-06,-9.794836447592038198e+00
3.285560047640058282e-06,-4.197055236070419619e-06,-9.794849527746546158e+00
3.787924718643504339e-06,6.860369748894224488e-07,-9.794843985614877013e+00
3.420949612824979292e-06,1.249656519165690663e-06,-9.794841799107175007e+00
-5.645799979034940785e-07,-7.162134266233856692e-07,-9.794836629051122401e+00
2.180304368310081687e-06,-1.517635977099350447e-06,-9.794839169321051031e+00
3.134452519372518782e-07,7.502759042273113336e-07,-9.794843379334150058e+00
2.060817605843645710e-07,-1.827489144185565311e-06,-9.794844154180733398e+00
-9.528061692933701191e-07,-3.868283627786442022e-06,-9.794840487611869762e+00
-1.609383134657114412e-06,8.040958926163906852e-06,-9.794842154081333518e+00
-5.383964469480646519e-06,-5.772209098225433742e-06,-9.794838658594047232e+00
2.220396660339156344e-06,-4.663709869366183392e-06,-9.794841648620653984e+00
-7.651869873960829961e-08,-1.749113029549628721e-06,-9.794840975232228075e+00
-6.640492751453990873e-06,-8.457912987513480419e-06,-9.794832376054133150e+00
2.428597776758973186e-06,-5.244092914931144833e-06,-9.794833541001525035e+00
-4.025712436366025869e-06,5.627063665177274358e-07,-9.794846715756957423e+00
2.818423818099458384e-06,2.175783090491626238e-06,-9.794848803441441376e+00
2.621426732136755156e-06,6.438412893554938848e-06,-9.794839243982764287e+00
2.270673234668792038e-06,2.407666374404115225e-06,-9.794843159339867711e+00
-7.661620632631586234e-07,5.416119789900523300e-06,-9.794844411658168326e+00
-5.553692140679083833e-06,-4.135003451850156097e-06,-9.794845188205066222e+00
8.625233814650493425e-06,-5.271586334506829192e-08,-9.794839912309301511e+00
-2.575608676216206517e-06,2.632341952330003095e-06,-9.794843664635239477e+00
-2.353263296186300485e-06,8.077109610847661502e-06,-9.794844511103551810e+00
-6.741721144698384397e-06,1.069650774138360345e-06,-9.794848266330168585e+00
1.655527804116158422e-06,-2.991336915344839636e-06,-9.794842623478134058e+00
3.227445719673066085e-06,-5.821646242908323524e-06,-9.794844291792681901e+00
-5.641470644490797073e-06,-2.022898138345399665e-06,-9.794840254540829960e+00
-1.012815485495520011e-06,3.054978083766362149e-06,-9.794841538383890267e+00
5.039033611117070549e-06,2.047257235823336200e-06,-9.794847732367717441e+00
9.112146731442561770e-06,-4.585895778432482464e-06,-9.794842359932070863e+00
-3.631086568977773577e-06,-5.033051474905369887e-06,-9.794840473621023946e+00
4.701177451354528636e-06,2.018821225553615088e-06,-9.794844596857707586e+00
5.777394872733204403e-06,1.147987052695803577e-06,-9.794841751919763695e+00
3.973589118663015117e-06,4.721451822536142594e-07,-9.794843628919691625e+00
6.133346500985294892e-06,4.481625197353695366e-07,-9.794846320995253208e+00
6.646050939423340082e-06,3.616278813881608953e-06,-9.794841835211773429e+00
8.058356398028744294e-06,-1.744938725833966816e-07,-9.794849648209350335e+00
6.420680265039509938e-06,6.993329506305955622e-06,-9.794844264611876739e+00
3.273753645773328571e-06,5.475542832350129404e-06,-9.794848403419402771e+00
6.891205989427599807e-06,-3.797459848750778343e-06,-9.794842829773998005e+00
2.506224267048288367e-06,3.778814435693305879e-06,-9.794846194978092058e+00
3.208475019002311108e-06,-1.641743868192454976e-06,-9.794840674652924406e+00
2.806262811816073062e-07,-2.762756035017489868e-07,-9.794839853689495612e+00
2.389681378206278110e-06,-2.390349682630813201e-06,-9.794843389784555043e+00
-1.258040123524758329e-06,-4.295014822607429500e-07,-9.794840730177273969e+00
4.415820660746554633e-06,2.425330683321683118e-06,-9.794840245342554041e+00
2.098106389963300570e-06,-3.755696083951183879e-06,-9.794844616011577187e+00
-1.187148926815118501e-06,-4.512344050128810311e-06,-9.794845069798206794e+00
6.956747994190499467e-06,-3.952966728443746693e-06,-9.794847143394209255e+00
2.556101721821663644e-06,-7.556723803107784999e-06,-9.794837505196047900e+00
1.313764740593978064e-06,3.766676040703458095e-07,-9.794849862775256710e+00
2.022030465369792298e-06,-9.713330814428034547e-06,-9.794841564922274202e+00
8.620849592782101110e-06,3.284778452808314706e-06,-9.794845594265014554e+00
-1.505037301358806001e-06,-1.978257758700654696e-06,-9.794843940640427959e+00
-5.096028164864791935e-07,3.787697892691182001e-06,-9.794841735296598628e+00
8.085739857862979605e-06,5.720000873618876541e-06,-9.794846747339819970e+00
7.505133594252403999e-06,-3.378483638561954767e-06,-9.794841609188907228e+00
9.897480690268702295e-07,2.003912674744149375e-06,-9.794846913936515520e+00
-5.695152166270996792e-06,-2.797670323355429786e-06,-9.794840667286845104e+00
2.523084147402991826e-06,9.456837597911905653e-07,-9.794850362056061854e+00
5.423297519112811472e-06,7.036892988305002901e-06,-9.794837805477559556e+00
7.001185071403427540e-07,-1.654780957032151123e-06,-9.794846142588976790e+00
2.901950486222764244e-06,-3.458031190484506265e-07,-9.794844352948800292e+00
1.957108002018106479e-06,1.270167604259853973e-07,-9.794846710473244400e+00
7.143328190932720335e-06,2.168953310191290684e-06,-9.794842271794848898e+00
-7.515892498456356794e-06,3.950429989599045157e-06,-9.794847115488705569e+00
-1.984121022906754285e-06,-7.495508407419786313e-06,-9.794841026397390849e+00
3.956780985004788189e-06,-2.226044970847925531e-07,-9.794842099999890195e+00
4.890363415997901974e-06,3.610063441383727322e-06,-9.794845849865549070e+00
5.146550485266727972e-06,-3.873799063801039655e-06,-9.794850473571109717e+00
5.174882692770729782e-07,-1.376867837029429745e-06,-9.794847546631819668e+00
2.909882279147068282e-06,-4.963295602432097250e-07,-9.794839930712480935e+00
1.260596113785420228e-06,-9.548010252687588549e-06,-9.794846745443496872e+00
2.574788418340461950e-06,6.024976636076564442e-06,-9.794844928910620752e+00
2.986440182509595957e-06,4.256305770779757127e-06,-9.794851415054306898e+00
4.272336618688596500e-06,-3.757967559789475377e-06,-9.794841519161012755e+00
-2.761310220341399963e-06,-3.344882243310790797e-06,-9.794844695545080526e+00
3.730419220415718845e-06,-3.768078561697736214e-06,-9.794847096256367180e+00
-1.925249622285281560e-06,2.199145924116985394e-06,-9.794843411787915954e+00
-7.047748246384614135e-07,-6.104546938214005809e-06,-9.794841489836818127e+00
2.870830859942017029e-06,-3.904533893356706403e-06,-9.794846113356323158e+00
-7.518533240954818287e-07,-6.243671551568908692e-06,-9.794850290817660010e+00
-3.968443695186836610e-06,-2.632404600678952968e-06,-9.794844816407270116e+00
2.935258074803671890e-06,-1.180366709471707567e-05,-9.794839272700262001e+00
5.834088850083795033e-06,-5.219737065109502157e-06,-9.794843882383991840e+00
4.560863173237110734e-06,-1.277806990199303906e-06,-9.794843503400020523e+00
1.046512559308830314e-05,-2.233195941479280946e-06,-9.794845350611106838e+00
6.191305296860072238e-06,4.134287347776637213e-06,-9.794839026642817359e+00
1.104130076945434021e-07,-3.899080033193950598e-06,-9.794844354758581062e+00
7.275619085071109203e-07,3.366764700836445839e-06,-9.794845803496171399e+00
2.620153559632853585e-07,-4.563282779508136229e-06,-9.794846051426544520e+00
-3.669254016322727832e-07,6.987539468075839978e-06,-9.794850382115406262e+00
9.976853612860001874e-06,-7.895160831885813637e-06,-9.794852362013362068e+00
-1.208473033049251431e-06,3.829069551936407292e-06,-9.794842674745448008e+00
5.558430992552741291e-07,-6.892232277260010247e-06,-9.794843738694531510e+00
3.671046749911327141e-06,-1.373097529050383918e-06,-9.794842688965648136e+00
1.207068455975951867e-06,2.719719359986128894e-06,-9.794839998765962008e+00
2.082094267931471119e-06,5.274656099366436374e-06,-9.794848228889168951e+00
1.719122474372315429e-06,2.834619467829787707e-07,-9.794850760273394741e+00
3.376246133603072552e-06,-5.088594806384990322e-07,-9.794849169939141120e+00
6.267195824872658231e-06,-2.070569825012948849e-06,-9.794847031311443075e+00
4.708545850923720333e-07,-4.654494731315554203e-06,-9.794846375369841596e+00
3.502929257524875922e-06,8.349693014835761625e-08,-9.794848852503779568e+00
-2.609436762680134534e-07,-2.329297850041862396e-06,-9.794840381002423157e+00
8.366872050237936143e-07,1.026143472286854216e-06,-9.794837613529409737e+00
7.017113285273006691e-07,4.733929924049376331e-07,-9.794835577462814413e+00
1.321080999947188392e-06,-6.588283277985662058e-06,-9.794847892182040994e+00
-1.130473112264228007e-05,2.391014510016007198e-06,-9.794840390057458990e+00
-6.723085587302764698e-07,-1.154842017535239733e-05,-9.794839994817243323e+00
5.743224712496576651e-06,4.524913152105253091e-06,-9.794843077009099730e+00
-1.476654777232809065e-07,4.269508500324964480e-06,-9.794839120420412826e+00
9.261192000929227903e-07,-6.115774610211805642e-06,-9.794843768634462933e+00
-7.170235340156421844e-06,-6.248963333582202684e-06,-9.794838415532595377e+00
7.650484203342402308e-06,1.846525849170488338e-06,-9.794844116166043335e+00
1.564445146978216835e-06,7.676947994457427822e-08,-9.794844062388458283e+00
3.563455015371784608e-06,4.558412944701264293e-06,-9.794846415030605158e+00
-1.765257253076450766e-06,-2.792456764361983573e-07,-9.794839586579085378e+00
-3.106139807635205552e-06,7.473975507303061739e-06,-9.794853564278543701e+00
-3.537335241415745619e-06,-6.724268706472745946e-06,-9.794845343923368475e+00
1.268043319921833037e-06,-6.237546822685252843e-06,-9.794845975368483337e+00
6.868921290790324874e-07,-3.984488988834953412e-06,-9.794840942130308648e+00
4.296127559058289375e-06,4.833459947591342973e-07,-9.794840876989944434e+00
7.178576317145341255e-06,2.382202262393994182e-06,-9.794848044707656243e+00
3.293343974394436077e-06,-1.031388758385562525e-05,-9.794848715434252284e+00
2.655628372378733883e-06,-3.117124792705525844e-06,-9.794841900789084121e+00
1.246703455578257322e-06,1.422484014971674870e-06,-9.794846373402943840e+00
4.196063311115916400e-06,-8.105502048887893563e-07,-9.794844973440881120e+00
4.352148519854653430e-06,-1.955177058426875737e-06,-9.794845767093182332e+00
2.798227871923519748e-06,-1.255247704978985458e-05,-9.794844500559230838e+00
4.922378628940107954e-06,-3.672047717135183003e-06,-9.794847230993768861e+00
3.402232764525138471e-06,4.777076700664452605e-07,-9.794844341133451593e+00
2.139130262002874686e-06,1.432675489250503836e-06,-9.794843687868640458e+00
4.841614421932238590e-06,-3.043906113161557803e-06,-9.794836624004084058e+00
1.944933061296922078e-06,-1.052979925179347622e-06,-9.794843258330834246e+00
-1.089416607953943220e-06,5.900720048646617311e-06,-9.794842229466118155e+00
2.609111844041707387e-06,4.390091008325463201e-06,-9.794847248759015912e+00
5.698293751040572059e-06,1.767461317185809156e-06,-9.794851336868395819e+00
1.394028801726051325e-06,-8.599449371911499607e-06,-9.794845822829799431e+00
8.120454538508742020e-06,-8.799199543438901240e-06,-9.794849700863483832e+00
-1.873102198720176677e-07,-2.104853112359707487e-06,-9.794843166310222671e+00
-4.016111222865744560e-06,-3.034452585426472801e-06,-9.794842852950022660e+00
1.817161043347624200e-06,-5.290068545218924246e-06,-9.794844563456333475e+00
1.344582545569203078e-06,-1.452026574363427823e-06,-9.794838745032286909e+00
4.784540761266705735e-06,-7.078640702908685009e-08,-9.794846145477565713e+00
6.215415392384063968e-06,-2.765715132867729657e-06,-9.794840823140692265e+00
5.605374856082289249e-06,7.170405446254162030e-06,-9.794849183699096073e+00
3.036776628304298925e-06,-9.011006472604828502e-06,-9.794857063799966568e+00
1.007183551116132720e-05,-5.313977004009634450e-06,-9.794846452015155691e+00
-3.217124041515707056e-06,-4.919977666200593910e-06,-9.794846664137894621e+00
3.165578205346280040e-06,1.301824216573579941e-06,-9.794846437268484252e+00
5.091642010478675487e-06,-4.475561401653362287e-06,-9.794834848507830927e+00
1.590245023801773423e-06,-4.852189212150632251e-06,-9.794845436436885322e+00
1.676567225608264712e-07,-5.368868771816428662e-06,-9.794844389163683829e+00
-1.366840463791590526e-06,-7.418197315061083015e-06,-9.794851816849055481e+00
5.096501630376438825e-06,-1.961396622787768807e-06,-9.794846576286461826e+00
-2.857425039696630642e-06,7.546794710857124473e-07,-9.794853661249460330e+00
-5.462457155041538828e-06,-1.742907351707250442e-06,-9.794844731074030975e+00
1.422639908241656458e-06,-1.836967308760173894e-06,-9.794844274265456008e+00
3.135624864570232405e-06,-1.161326993077024923e-06,-9.794843246719359797e+00
-1.189705177221740790e-05,-3.047482360339519188e-06,-9.794848484254977450e+00
5.920945777877516674e-06,-6.361663493588214442e-06,-9.794845549625854630e+00
2.102726016422487895e-06,-7.002803541091825287e-06,-9.794847468105357891e+00
3.087734136498822623e-06,-1.080623106349270181e-05,-9.794839732912707930e+00
2.105413902229331653e-06,-2.876422252925498626e-06,-9.794840765218536305e+00
2.083653909913877021e-06,-1.526057647433670158e-06,-9.794845509271539186e+00
4.641120821193241624e-06,3.326182485841627935e-06,-9.794841714406574695e+00
-4.124804623569129297e-08,4.756537629474262353e-06,-9.794843473933944722e+00
-5.063771200325392199e-06,1.468160916400416482e-07,-9.794846567022775119e+00
2.710708322864976976e-06,-1.918507611165437083e-06,-9.794840382949635327e+00
1.803895798786352358e-06,4.615650146531206458e-06,-9.794850122667773107e+00
-4.846811155484273971e-06,5.141506665170860693e-06,-9.794847880630475956e+00
-1.249602266084350497e-05,-6.103835618279273686e-06,-9.794841871806983846e+00
8.002587735161173770e-06,6.635948838035823340e-07,-9.794844708615491058e+00
3.940268088626412692e-06,5.570812737295412933e-07,-9.794850300585199676e+00
-4.530321608104988980e-06,-9.000258901061857893e-06,-9.794838507419857621e+00
-3.666291995663224071e-06,2.927294778108993047e-06,-9.794848565596758760e+00
-3.406674425189156654e-06,6.150427242541727914e-07,-9.794840272226259970e+00
3.320794551999608003e-06,-1.418123370226983751e-06,-9.794839141689807960e+00
-6.160032326480709036e-06,-1.523158153120078579e-07,-9.794847904342551814e+00
-4.324395082621287865e-06,-5.925798633530708170e-06,-9.794846539490460913e+00
-1.636986183649888696e-06,-6.969990684459419505e-07,-9.794849816282944488e+00
9.691912178727194973e-06,-2.232700106287681600e-06,-9.794851350157037118e+00
-2.656155832988879153e-06,-4.217707910279926153e-06,-9.794846628149082690e+00
-3.771414033325880242e-07,-4.184643099426484782e-06,-9.794847000325198394e+00
1.116053966626089612e-05,-3.622207994188260494e-06,-9.794843436296964967e+00
1.271805007873495419e-06,6.373660500264623184e-06,-9.794846990200602121e+00
6.471272542626783536e-07,-2.537838368191883802e-06,-9.794853256325284363e+00
8.610569444019114884e-06,5.744327473190091371e-06,-9.794853197285682711e+00
5.381374178539446042e-07,-7.176295891147824013e-06,-9.794841727408869048e+00
-9.782949958749936848e-06,-1.071336872539666187e-05,-9.794848776578215066e+00
-1.203678396533767547e-06,-5.147819888208947158e-06,-9.794837250273474183e+00
2.627240339771279321e-06,8.425916007819306404e-07,-9.794841247661038253e+00
4.848634017514783943e-06,-2.951209590880533593e-06,-9.794845997022164852e+00
5.839734605470392366e-06,-3.156589296503180463e-06,-9.794846498203664709e+00
3.871721046583198310e-06,6.710259167990609847e-06,-9.794847301598681000e+00
4.301087862534067411e-06,-1.438487579828583740e-06,-9.794846294774554707e+00
7.251181024664621768e-06,-4.789746003652196071e-06,-9.794842613067373804e+00
1.908330472411342923e-06,-7.877284809715797269e-06,-9.794839672572530631e+00
3.720931950314367266e-06,-2.859777389762825756e-06,-9.794844478168002411e+00
-2.095257161349229998e-06,6.880309630984920171e-06,-9.794846634330030000e+00
-3.416644132513733987e-06,-2.605040411440761000e-06,-9.794851630598765624e+00
-1.012879667396921450e-06,-2.088787875051866341e-06,-9.794853620197628175e+00
5.877011322342535048e-06,1.552193076899594960e-06,-9.794846554696633234e+00
7.979687334797675515e-06,6.838040468551483513e-07,-9.794838335106964777e+00
7.549834918552307775e-06,-1.247066717035284810e-06,-9.794854330588286473e+00
2.266297317976630384e-07,-2.502345573705411360e-06,-9.794848250286385394e+00
-2.366184763066470271e-06,-1.560009298260774074e-06,-9.794839797751450305e+00
7.176083037206483741e-06,4.269678672975615190e-07,-9.794840398498275036e+00
4.041710535821735865e-06,-2.207870682652537899e-06,-9.794845406473696059e+00
4.907363420609151039e-06,3.918328722317399376e-06,-9.794841137907424056e+00
6.933630398304884782e-06,-1.419060243193421017e-06,-9.794842342465539531e+00
-4.151319796259917764e-06,-3.883396507886897799e-06,-9.794840422986105466e+00
-5.178303031188970216e-07,-2.414275465131472381e-06,-9.794843868618658078e+00
5.508693280819897039e-06,-1.493122039311935292e-06,-9.794843283238140685e+00
-9.041359894117574893e-07,-1.900470795043624416e-06,-9.794848690763481969e+00
-4.115315975174882067e-06,-4.705133005188207585e-06,-9.794847359457312663e+00
-9.337138984810544353e-07,2.780450411682869599e-07,-9.794847138808091103e+00
-1.005297626881837531e-06,1.919473145205141528e-06,-9.794839013704018882e+00
-3.121465165461334214e-06,8.233320099214235991e-07,-9.794843341209160670e+00
2.813772345951510238e-06,-5.862593217589876979e-06,-9.794840117364474352e+00
-2.017941022490808296e-06,-6.277640083884329151e-06,-9.794845818017623884e+00
-3.044136021597459254e-06,-9.035306792122568410e-07,-9.794844172046133224e+00
9.785234765182761481e-06,4.024890902339792799e-06,-9.794844212441821796e+00
2.582123230316871644e-06,-3.009922698524704447e-06,-9.794844155473052538e+00
2.594190488282555674e-07,-1.382202830544167606e-06,-9.794837649284671599e+00
3.637090774751289499e-06,5.022030064129071038e-06,-9.794844786184816243e+00
9.032391616642928702e-06,5.957704542931349469e-06,-9.794852878104252980e+00
1.489548067213569269e-06,2.184833888172075093e-06,-9.794844920005710165e+00
2.985046502647339135e-07,-2.903050179150321249e-06,-9.794849305084415647e+00
6.974936384955081925e-06,-6.305490940518278688e-07,-9.794846392087663389e+00
9.027983292482444301e-06,-3.932295405135141335e-06,-9.794851346256882252e+00
6.221319311572827532e-06,-1.909153288191032858e-06,-9.794846968324034009e+00
6.255469406766337660e-06,-1.118262460507008910e-05,-9.794843784082123861e+00
2.055033362785558173e-06,-5.619302640022417547e-06,-9.794844367145003616e+00
1.107407121184262018e-05,-5.258596540480388470e-06,-9.794845735553231236e+00
-2.833543005015150980e-06,-9.445330575847358276e-07,-9.794843065381675373e+00
4.667352357586834863e-06,-1.282079806796525207e-06,-9.794853202606571330e+00
-7.269775530841685003e-06,-5.954555975693087874e-06,-9.794843020817252111e+00
-3.523239833977484033e-06,-1.778636146587706445e-06,-9.794853224554245230e+00
5.063109633368266597e-06,-4.714308025526538241e-07,-9.794839181325965427e+00
-8.323388985485245659e-06,-9.122981709933360403e-07,-9.794852087343839386e+00
2.963469602649480444e-06,-3.048583956036038449e-06,-9.794846161328559120e+00
3.137913409127430492e-06,-8.865033951192478766e-07,-9.794846146118269203e+00
-1.419539062790921412e-06,-4.418870276600120637e-06,-9.794849249180643369e+00
4.596599493132707114e-06,-3.309144380253740846e-06,-9.794842701034252030e+00
-3.427491958576432659e-07,-1.556638170370606587e-06,-9.794847694766184887e+00
2.721651162562942546e-06,8.266767446733116394e-06,-9.794842028814352730e+00
-5.787928194947699095e-07,2.630866693285902280e-07,-9.794837217475317104e+00
-2.715744857990893533e-07,-3.619556837783435233e-06,-9.794849637700313139e+00
-5.205462975775477740e-07,-5.311317513214549820e-06,-9.794849903239295941e+00
2.260902598499399750e-06,-4.342480221495877299e-06,-9.794848401897821688e+00
-3.017761442787071307e-06,3.434257944254672528e-06,-9.794842504972910646e+00
1.435911813835940267e-06,-5.792008425615801581e-06,-9.794850362943826383e+00
1.798572156625601201e-06,1.349270475251001578e-06,-9.794847000563784434e+00
3.207711127991187824e-06,1.859116491453468528e-06,-9.794846381650437195e+00
-3.782839180747096877e-06,-5.665863305138037166e-06,-9.794846660682022588e+00
8.434018348059832835e-06,2.729128098247071798e-06,-9.794850703856061713e+00
4.907385963301919625e-06,-4.372385851631639539e-06,-9.794845233099069404e+00
6.334666423240540793e-06,8.332886391791524501e-07,-9.794844595941775367e+00
-3.302354371745026147e-06,-2.222087668227343245e-07,-9.794846636927367456e+00
2.005403152737345883e-06,7.997705873490819294e-06,-9.794844947228932952e+00
3.552751481871504330e-06,5.152977473093136740e-06,-9.794850254493036701e+00
2.238999878978765899e-06,-1.275311984372301420e-06,-9.794845249232016826e+00
1.960773256162613286e-06,-8.373255339852480041e-06,-9.794838778835730508e+00
-1.434820093839789703e-06,-4.402428359183636364e-06,-9.794847107308839895e+00
2.081898163944421124e-06,4.013353028625310057e-06,-9.794841425522410105e+00
-2.059049619078601904e-06,3.923485857280994335e-06,-9.794845260033389067e+00
-5.658287387851026479e-06,-1.679602379312043370e-06,-9.794845819661233577e+00
9.719452163272889532e-06,-1.150399859744240381e-05,-9.794841308791367496e+00
1.000490134538988908e-05,7.141492476184006434e-08,-9.794840452915556384e+00
8.555579883797081148e-07,6.078571430267735720e-06,-9.794840146739939968e+00
5.369369868375162077e-06,2.997430274921351838e-06,-9.794850809658298019e+00
3.054874437227994680e-06,1.366093606640507075e-06,-9.794838401597690591e+00
1.251290990166245378e-06,-1.064956758031976361e-06,-9.794838948373534748e+00
-5.615941711237619946e-06,-1.352040448816370685e-06,-9.794840909024571829e+00
1.059196600802182203e-05,-8.083522583513130499e-07,-9.794839291637224221e+00
-6.075315809584718860e-07,-5.527869975656989328e-06,-9.794845291315402491e+00
3.408878359517635855e-06,-2.665235123767430431e-06,-9.794841447360418840e+00
1.484220129105516777e-06,-3.818217934247904703e-06,-9.794842728025344059e+00
6.373652269815272632e-06,-3.928301664822840249e-06,-9.794847263891849565e+00
8.761237244710011891e-07,-1.307863029852297299e-06,-9.794845984248508941e+00
-2.537496781632747085e-07,4.870883248304221658e-06,-9.794848864125732746e+00
1.092550252458832546e-07,2.649786978207814884e-06,-9.794837553366045668e+00
-1.132760476845235298e-06,-2.493867937447358768e-06,-9.794851416438865144e+00
7.401361250235674024e-06,-7.513101215047836579e-07,-9.794847379412429333e+00
4.277453312012965706e-06,1.555118111182380694e-06,-9.794839325001106545e+00
8.226618916394291025e-07,-1.366016967259032371e-06,-9.794840229794059994e+00
7.983570133677601866e-06,-3.273869927899124600e-06,-9.794844794462871818e+00
-6.173961244793157532e-06,3.969166444747935046e-07,-9.794845076810553053e+00
3.617154263921735820e-06,-3.720210152225663507e-06,-9.794836471130123456e+00
4.840937078993909867e-06,-6.000962485713915775e-06,-9.794847777412259759e+00
-4.804200761497575317e-06,-3.880292475285372869e-06,-9.794841542959030534e+00
5.413850778636846716e-06,4.733227449800946517e-06,-9.794845543234323770e+00
5.507017538563985716e-07,1.617713542649114364e-06,-9.794837319996767988e+00
1.928468871061903805e-06,1.954587401106750533e-06,-9.794845927142945996e+00
-4.516217145011803295e-06,1.020502007073365534e-06,-9.794847370794297348e+00
-1.872823040567967594e-06,8.077431418176321968e-06,-9.794835199784552415e+00
-1.581482026394196257e-06,-1.090734416873280280e-06,-9.794850032476215773e+00
-4.443596813313734531e-06,-8.712966687727473207e-07,-9.794848951263139369e+00
-6.519198902013396485e-06,5.027372886586083734e-07,-9.794834598414869475e+00
4.497114269482428979e-06,1.841056628958902541e-06,-9.794841084868071590e+00
6.349091431822804265e-06,3.264241644991833964e-06,-9.794843817929082874e+00
-8.754786469360520472e-08,-8.681071209791700358e-06,-9.794839630881542192e+00
4.029523128011538453e-07,-7.482694905804134112e-06,-9.794851267367150172e+00
2.208376247462890189e-06,6.831049927128122905e-07,-9.794841580986512142e+00
4.393070925284996739e-06,-8.009274410280948806e-06,-9.794849534153577508e+00
-1.632104651648640937e-07,1.384419030126076229e-06,-9.794844549157669888e+00
-9.125456871556041615e-07,-4.602163959847695306e-06,-9.794847196788811772e+00
-3.122911827192243458e-06,-3.295528172997753735e-06,-9.794839985084184519e+00
2.652894753843250062e-06,3.955851237620049859e-06,-9.794846176272782756e+00
4.981214243041155584e-06,-2.205076611636046607e-06,-9.794849365071637948e+00
3.386979390034373360e-06,-1.132622461182935208e-06,-9.794846484550907562e+00
4.586710010036610622e-06,-4.787292684357836722e-06,-9.794841726193038056e+00
-2.563149915268013912e-07,-5.997171400747585730e-06,-9.794843603432738632e+00
4.241152328965336362e-07,-5.409930892693506860e-06,-9.794842028249856725e+00
-1.586300268313963856e-06,-5.521875656052811461e-07,-9.794838964341296972e+00
5.408926903451307489e-06,-1.120637962300603073e-06,-9.794846575339779093e+00
3.365965273248550982e-06,-1.938962695374271118e-06,-9.794844644089598873e+00
1.938373889688212137e-06,-5.444875317623667277e-07,-9.794847089910708959e+00
5.593456901723954972e-06,3.052081965451700309e-06,-9.794841546738291882e+00
3.301451261011132323e-06,4.524218231447774211e-06,-9.794842349180122199e+00
-7.177876722845767027e-07,1.256047963319424030e-05,-9.794845494742240533e+00
-9.174166036279678646e-07,-2.997888383239598963e-06,-9.794842359559497780e+00
-5.373779554185684298e-07,-4.924325207224462117e-06,-9.794837648106174299e+00
-5.662529212809935528e-06,-8.636484268426567829e-06,-9.794838194170935708e+00
-9.661766259948816742e-07,-2.513913327332354488e-06,-9.794842947290606006e+00
-2.152227730370970699e-07,-1.928464137184322916e-06,-9.794841133981742942e+00
9.673949732423124529e-06,-8.452074695333355260e-07,-9.794844089001658816e+00
5.238115949365619256e-06,-4.045673346636816049e-06,-9.794841539044906398e+00
2.779931963693689344e-06,1.878694334603722622e-07,-9.794840081969123702e+00
-6.730610977144850144e-06,-2.956293566360166591e-07,-9.794844605121138414e+00
-3.983017880457772478e-07,-7.337430646160162535e-07,-9.794844527108459431e+00
6.634342985637642720e-06,6.553899763173971816e-07,-9.794845876831548281e+00
3.056891572357059364e-06,-6.503879324532230253e-06,-9.794838280491104499e+00
-6.280983762700565545e-07,-8.304200657245057002e-06,-9.794844677948256972e+00
1.413781597560749543e-06,-3.025948097041805728e-06,-9.794849001246085152e+00
-3.326095779892602737e-06,-9.491612912445087158e-06,-9.794844060654408935e+00
1.519707704106265819e-06,1.139833814968898252e-06,-9.794849887093439733e+00
5.846868852634270092e-06,-4.736259996818613317e-06,-9.794843170315999714e+00
-2.502687022788392773e-06,5.528383275025535798e-07,-9.794841248450165239e+00
2.124790527771145164e-07,-2.256030416233925393e-06,-9.794842238056961747e+00
3.489327633211706953e-06,1.246842208693810910e-06,-9.794845546486651955e+00
3.899039311254133013e-06,-5.272863457788674761e-06,-9.794835823014350851e+00
1.396682173718866623e-06,-1.866194774963155993e-06,-9.794840416634867708e+00
-4.222258134138844970e-06,1.324507326470729542e-06,-9.794847874922300690e+00
9.591152336759755165e-06,2.197062561428610246e-06,-9.794841826097604454e+00
8.877486647065998769e-07,-4.434381066467172534e-06,-9.794840528289780579e+00
4.828753734750308908e-06,-4.427375713311628130e-06,-9.794842978480701845e+00
5.971787625461996804e-06,5.573699278377806151e-06,-9.794846156463364650e+00
6.258569503273895418e-06,4.021266783746347238e-06,-9.794846396874223871e+00
4.177883828626835346e-06,2.427686381130189497e-07,-9.794854509965556844e+00
3.180271290296061417e-07,-2.027442315874766641e-06,-9.794853040161591196e+00
6.412161451757615301e-06,-1.696848576121396789e-06,-9.794849553093317951e+00
3.293869244781261425e-07,-4.986230614506696901e-06,-9.794844471693966881e+00
-1.200709381999459997e-05,-6.310691799788486234e-07,-9.794848085166146134e+00
1.446818957013009483e-06,-7.562600122785968266e-07,-9.794847386996995198e+00
-4.395436265040633051e-06,-7.413981642414414873e-06,-9.794848777386354399e+00
-3.669809439692129296e-06,-3.960302040764999290e-06,-9.794849558745852391e+00
3.365047314937592069e-06,-1.957803136194437328e-06,-9.794841309310882593e+00
5.434097737777986988e-06,-1.316975134202126856e-05,-9.794843376112471134e+00
1.172555794349088654e-05,3.356928736004862020e-06,-9.794847041552879219e+00
-7.700725681812066692e-08,-4.865358602280880787e-06,-9.794857599424705796e+00
9.029488458309650644e-08,-9.463583312643008478e-07,-9.794851516934453883e+00
-5.893668772292204991e-06,1.047939732453443080e-06,-9.794840457127962807e+00
6.664937401981217325e-06,-1.913737187072818042e-06,-9.794846075596238322e+00
5.831933807824899490e-06,3.042062195908978411e-06,-9.794845142418640904e+00
-2.218662844679239038e-07,-4.984878272917277679e-06,-9.794842809158067709e+00
6.498412257984493903e-06,-1.463637776846651863e-07,-9.794841464584196800e+00
8.050719383712287331e-06,9.747392809566410627e-07,-9.794844498360143703e+00
7.335406534388683393e-07,4.578057287832315762e-06,-9.794843442921120413e+00
-4.641613567315312606e-06,5.837227045201356196e-08,-9.794844991242763754e+00
4.728144907016855159e-06,6.222389753291686296e-06,-9.794841574753972324e+00
-7.052978399130470343e-07,-4.144537988084632178e-07,-9.794843414906308610e+00
-9.475670568605864597e-06,-1.532329720754906627e-06,-9.794844404857228071e+00
-1.304371013999246827e-06,-2.055135444946321575e-06,-9.794844098354248629e+00
5.451079183074633528e-06,5.052769198459045697e-06,-9.794838842632913156e+00
-8.057147764996503296e-07,8.820795101189931908e-07,-9.794839568255602202e+00
6.660371151285267001e-06,3.622267014212539642e-06,-9.794842736757383150e+00
-1.055173677202728643e-07,-3.431662910515425511e-06,-9.794843893595507112e+00
9.885400682755433933e-06,-3.409103969670550878e-07,-9.794842571860948865e+00
7.461564477497086844e-06,-8.624313036285026183e-08,-9.794844482905617156e+00
7.115392393106777320e-07,1.491238776887973502e-06,-9.794848621844515435e+00
-1.557735631444780499e-06,-1.042220221720516729e-05,-9.794844274514874272e+00
2.849245366974230825e-06,-1.319522845776468111e-06,-9.794846487964099069e+00
4.279897018005819406e-06,-3.081817268311834160e-06,-9.794841832260859249e+00
7.125987054357035280e-06,-3.517193625577543941e-06,-9.794846266153108161e+00
9.981140342924831278e-07,-5.747600004754373734e-06,-9.794842804745750087e+00
-1.759168375356168226e-06,-1.782238697565169117e-06,-9.794849688053433923e+00
-5.904302135484492859e-07,2.169894698254746647e-06,-9.794850933804063686e+00
-3.450698634286207109e-06,-3.973937036444616345e-06,-9.794844799401777991e+00
3.893638949488165439e-06,-5.391838701955652513e-06,-9.794848320945247266e+00
1.521915367126917234e-06,4.318794492261140024e-07,-9.794836935573249193e+00
-1.369329897515975298e-06,-4.062453719335181104e-06,-9.794839498845998804e+00
-2.854297356262756476e-07,-3.817696682703637391e-06,-9.794845497814339552e+00
4.821331385440479720e-06,1.141442394142043905e-05,-9.794844453002740536e+00
6.028399234532290046e-06,5.546472862598580171e-07,-9.794836232259516606e+00
3.240503749823841271e-06,3.022615196708720236e-06,-9.794847828309006132e+00
-1.226433353711393317e-06,3.742374485465385772e-06,-9.794845851455194818e+00
-8.100167271214029488e-06,-3.992692827583306948e-06,-9.794845453086908904e+00
6.331247555013009019e-06,-9.172280293705369888e-06,-9.794844092548174785e+00
-1.509708964024481831e-06,-5.945604822305766404e-06,-9.794844608530635099e+00
-4.315209405256345116e-07,3.934880418365530420e-06,-9.794849285541939565e+00
1.031781690979760429e-05,8.225888947905126828e-07,-9.794847440061722921e+00
-9.834147107884076549e-07,-1.137906466185662947e-06,-9.794848037132057428e+00
-1.511288174351284808e-06,1.407268266534634846e-06,-9.794839703138192633e+00
8.409233911975724966e-06,-2.064628232976317728e-06,-9.794836020391558762e+00
1.403123400528103369e-05,-1.530934380290985270e-06,-9.794848963826748189e+00
1.112143838264206754e-05,1.569049338455773783e-06,-9.794846133213770401e+00
1.133622382698894042e-05,-1.095991341316659882e-06,-9.794844646207881311e+00
4.972235454581546226e-06,5.442360264820857553e-06,-9.794838522317517615e+00
2.645246013007226504e-06,-1.304181835661317806e-06,-9.794838085876827805e+00
6.186910548037271719e-06,4.051666479673817835e-06,-9.794847077539053259e+00
-1.416140867340443713e-06,-1.651476348313978123e-06,-9.794840079295422441e+00
5.279990811259037151e-06,2.137854131413527466e-06,-9.794853914072179535e+00
9.112678708010564475e-06,-8.885009058827478438e-06,-9.794847942990944745e+00
9.254040591717022925e-06,3.158807030362403920e-06,-9.794836994921951145e+00
4.283086817400014328e-06,-1.392229018815677910e-08,-9.794842163203053786e+00
1.529381432539522577e-05,-3.644839060600133905e-06,-9.794842112529670075e+00
8.346062584231016618e-06,6.059031906701535813e-06,-9.794847474192675207e+00
-3.162233304760231216e-06,7.418717133342654907e-07,-9.794845767374773970e+00
2.643553657372021008e-06,-1.228645707411905212e-06,-9.794842724484835728e+00
8.108073282159822190e-07,-3.348879993075217779e-06,-9.794842705199384270e+00
1.805259061478738722e-06,-1.048578320434891203e-06,-9.794848933070019470e+00
1.047924011141020186e-05,-2.066746416276627696e-06,-9.794841392302865657e+00
1.714686357940914509e-06,-1.937232738312632472e-06,-9.794842935205116063e+00
-2.548559030820856109e-06,-3.832454802381746200e-06,-9.794848387316307026e+00
2.274385629295568811e-06,-6.377634678014496489e-08,-9.794838253004373385e+00
6.694755093333846485e-07,7.031302543177389382e-06,-9.794842277005992415e+00
1.235730265423508079e-06,-2.059735186537317362e-06,-9.794848397404596341e+00
-2.737555341173795435e-06,6.767483491935056974e-06,-9.794837226958613030e+00
-5.318683838773661713e-07,-6.741447985911811752e-06,-9.794846457747992119e+00
7.986524831575766911e-07,-1.339137471172366649e-06,-9.794841557163719514e+00
2.295985772056526502e-06,2.126181337330504239e-06,-9.794845421778964223e+00
4.476726243291919174e-06,-2.444740646650416192e-06,-9.794842386311666260e+00
3.469058787770891524e-06,6.378102733523182220e-06,-9.794846726221535960e+00
6.178884062354293800e-06,5.282494683838391639e-06,-9.794841475201096159e+00
7.593277849245651634e-06,-8.105512522325102305e-07,-9.794839241350222991e+00
6.533113300141784567e-06,8.489996165131820337e-07,-9.794848072945201878e+00
-5.203983828774892692e-08,-1.183988101534033380e-05,-9.794840693896510686e+00
-1.730104875319589094e-06,-3.863326370904893423e-06,-9.794848143702425958e+00
1.778292935246742474e-06,-7.606501695044851500e-08,-9.794845601474873931e+00
5.137143081976043914e-07,9.132999086126452618e-07,-9.794839773259997884e+00
3.827763474009199910e-07,-3.140154849481183355e-06,-9.794844179146695140e+00
1.116639553553905933e-05,3.530905975439528481e-07,-9.794844884067352098e+00
8.206624573996085766e-06,1.622087046896755389e-06,-9.794849632850045396e+00
2.989745200705940127e-06,-3.228302305319666283e-07,-9.794840112672430266e+00
-3.615519571251884620e-06,1.517746295874204707e-08,-9.794843680604525815e+00
4.656211052972539784e-07,-4.257709838100742520e-07,-9.794843547121290683e+00
4.662923135158414250e-07,-2.358619469482232757e-06,-9.794838444188867399e+00
-2.554674096508704616e-08,3.360156449826389401e-08,-9.794847061619169182e+00
1.866038135273670585e-06,-2.502356102000279485e-07,-9.794840814580885180e+00
-1.811404586153754738e-06,3.198918567171300658e-06,-9.794842256251323320e+00
-6.408080920277996141e-07,-2.963026155385772215e-06,-9.794846516801918312e+00
6.561693292526828254e-06,6.877382152475383745e-06,-9.794846804141286611e+00
2.299723569729475817e-06,-8.764479917884933436e-07,-9.794841498192846885e+00
-5.835884646123432919e-07,5.211133467340978540e-06,-9.794836228829321811e+00
6.470049482743712315e-06,4.354431236898901426e-06,-9.794841969036358620e+00
-4.866130766511624726e-06,-4.909038759369721009e-06,-9.794849199195764911e+00
-1.451570392244586653e-07,-9.159787124875862815e-06,-9.794837445790527397e+00
-3.881277800273105813e-07,1.626326863153265246e-06,-9.794843355414966979e+00
1.758791367860529276e-07,-2.532325140268078745e-06,-9.794847600306901825e+00
1.187348539936468028e-06,-1.238700261824188986e-06,-9.794839042118690386e+00
4.273434907669372999e-06,-5.621150371311860731e-06,-9.794846266878368013e+00
-1.236833589013569826e-06,-6.334207431903796666e-06,-9.794850989014218356e+00
2.260288669777996865e-06,-7.276676846467103315e-06,-9.794843391368202035e+00
6.669690904038200233e-06,-3.142034732221668037e-06,-9.794844524153347720e+00
-2.047134746537202588e-06,3.184738809474509382e-06,-9.794847734054089372e+00
-4.784969822342974587e-06,6.000433533187345644e-06,-9.794846944300628522e+00
-3.939031259611845669e-07,4.117733884571405959e-06,-9.794843839440977362e+00
7.100988851364993877e-06,6.395540116015588209e-06,-9.794844766470385267e+00
2.603944596197482507e-06,-4.986592995491350192e-06,-9.794842729536167525e+00
1.483642780283537545e-06,-7.401217747521593435e-07,-9.794845886383116706e+00
6.378726062768105046e-06,-2.315511539134058777e-06,-9.794846962720242800e+00
1.127008611410686011e-05,2.364567400494504924e-07,-9.794845628475956190e+00
1.000004122664271966e+00,-7.796257386823066579e-06,-9.794844004668702198e+00
1.000004969321649950e+00,-7.929552409010063506e-06,-9.794841245541874741e+00
9.999908181034894428e-01,-5.978786238489763439e-06,-9.794848430272381279e+00
9.999996407355018491e-01,-1.496842642830659486e-06,-9.794845177812652182e+00
9.999996057416481454e-01,-4.714280699246924808e-06,-9.794849779209103602e+00
1.000001366024445115e+00,4.297047573063159215e-06,-9.794842553545056063e+00
1.000002115152452520e+00,-5.485622074694501658e-06,-9.794843564372797573e+00
1.000004852465415484e+00,-8.858216840850265488e-06,-9.794846008237149348e+00
9.999955573346841486e-01,1.823516949302225336e-06,-9.794850962871402444e+00
9.999894178553596635e-01,2.926320322892870629e-06,-9.794847593038443989e+00
9.999988046322969559e-01,-1.096690191714745070e-05,-9.794841350547814685e+00
9.999901252940980312e-01,-5.178682880391779644e-06,-9.794848549460029474e+00
1.000002986369216584e+00,3.042030328196781591e-06,-9.794841471829371926e+00
1.000000809869721952e+00,5.883953360227140483e-06,-9.794842052231542695e+00
9.999972677581139280e-01,-1.503859229485837694e-06,-9.794843644535070837e+00
9.999989586571699229e-01,-5.737169891989919825e-06,-9.794848009156472912e+00
9.999996120231545715e-01,3.290456266174645964e-06,-9.794845758260271040e+00
1.000003928926734620e+00,5.538214903541919116e-06,-9.794840526469926090e+00
1.000008292734280824e+00,4.884349314507718251e-06,-9.794846241292917810e+00
1.000000780113198706e+00,2.306050060833625196e-06,-9.794845435895194186e+00
1.000002210913420786e+00,-1.268826429891021780e-06,-9.794839313407083026e+00
1.000007576562660150e+00,-1.750266689979570067e-06,-9.794847820726671372e+00
9.999992683903919932e-01,-1.003725169894057200e-06,-9.794842477138599790e+00
1.000010737063468547e+00,2.164921460140049845e-06,-9.794845217748038735e+00
1.000004075999049613e+00,-1.788099237413041180e-06,-9.794849990140320983e+00
1.000002027708989605e+00,5.046425756700136174e-07,-9.794846313316343256e+00
1.000001718360676861e+00,-3.455630328582661583e-06,-9.794848183113042950e+00
1.000003403040048422e+00,-3.993188988223567166e-06,-9.794837257970536726e+00
1.000002687604309326e+00,8.160749267692846431e-07,-9.794839772045671467e+00
1.000006519059868371e+00,3.129891304447501160e-06,-9.794847027074167656e+00
1.000003031310901624e+00,-1.940312917062511913e-06,-9.794838175458085772e+00
9.999991182026474190e-01,2.957254705589168545e-06,-9.794851409948071463e+00
1.000004158655102726e+00,-3.472225704803104592e-06,-9.794842501862015993e+00
1.000004746506861109e+00,8.767631218605985666e-07,-9.794851550269150664e+00
1.000005718132220167e+00,-2.815626639752944056e-06,-9.794846460658595433e+00
1.000006853428724307e+00,3.511022343838321827e-06,-9.794845753438073288e+00
1.000004661288851793e+00,1.024392657904611188e-05,-9.794844295625596331e+00
1.000004434825560118e+00,5.483109114387566586e-06,-9.794853189264271620e+00
9.999976488441997269e-01,-2.196753746360462080e-06,-9.794843508459415204e+00
9.999972830760038844e-01,-1.051536506369606727e-06,-9.794840465356719150e+00
1.000006694619613556e+00,1.504176112355050474e-06,-9.794837618023418457e+00
1.000003776138137956e+00,-3.785745079488207521e-06,-9.794839501184982922e+00
1.000005641643332277e+00,-6.897472887896784949e-07,-9.794842466916698243e+00
9.999967971238111764e-01,1.368496274448999819e-06,-9.794844408694345361e+00
1.000008987540182304e+00,-5.834975918117820725e-06,-9.794832993976221758e+00
1.000003629178733755e+00,-4.491819399922272860e-06,-9.794846049790466580e+00
1.000002959210594788e+00,5.405762515264389110e-06,-9.794844936810317648e+00
1.000000107812329286e+00,-6.867567981424858922e-07,-9.794845603223263808e+00
9.999959053507431195e-01,-3.728508422015572932e-06,-9.794842245227245670e+00
1.000004097674588532e+00,-1.874014241344037323e-06,-9.794849064799086236e+00
1.000005843077192758e+00,3.931865621582299483e-07,-9.794847208855944842e+00
1.000008342006087014e+00,-1.486148919214370221e-06,-9.794844498654924791e+00
1.000003436324585548e+00,-9.116725697183601841e-06,-9.794846709501433324e+00
9.999992570291079685e-01,-4.606108523867915207e-06,-9.794847202085573912e+00
9.999987924584778920e-01,2.085654188205952292e-06,-9.794840355409963450e+00
1.000006461321072848e+00,3.311125689549955050e-06,-9.794846007348029460e+00
9.999999406529364032e-01,-3.715765470279706755e-06,-9.794841846211454595e+00
9.999966536089597291e-01,4.068676193362204035e-06,-9.794840548232722099e+00
1.000008294222707761e+00,-4.075115319345092914e-07,-9.794848587614360724e+00
9.999980266651755656e-01,1.521326400059143436e-06,-9.794849817566651851e+00
1.000005770898334534e+00,2.891848186893124333e-06,-9.794843791753597984e+00
9.999960442771440583e-01,-1.030645971598887116e-05,-9.794846777400898929e+00
1.000008128210464919e+00,-3.859974145346705000e-06,-9.794844960061942274e+00
9.999971996196743707e-01,-2.485120480416826503e-06,-9.794840885811286313e+00
1.000003377085550982e+00,-1.150766429265271387e-05,-9.794845975215656253e+00
1.000003210867819847e+00,-8.067595012055421965e-06,-9.794846347352017091e+00
9.999981395652912664e-01,4.834700841103865338e-06,-9.794848026242068073e+00
1.000001918353162100e+00,5.934990328800496528e-07,-9.794843284433975228e+00
1.000004700129709656e+00,-1.269631113450269779e-06,-9.794844194362108070e+00
9.999974907929681800e-01,-4.587247408753511106e-06,-9.794840646437140919e+00
1.000004458082663694e+00,-2.365842988912154482e-07,-9.794837286898040674e+00
1.000001927975745275e+00,2.733318212734198993e-06,-9.794840681220081891e+00
9.999995384642985652e-01,-7.233271533328358913e-06,-9.794846661061269444e+00
1.000006489473938220e+00,1.653623260048243424e-07,-9.794854293382677213e+00
1.000001488884780798e+00,1.115790162898280207e-06,-9.794850308014398266e+00
9.999974342712606434e-01,3.361242363580958871e-06,-9.794842955394546635e+00
1.000008207016966910e+00,-1.620918379214529181e-06,-9.794847151960608400e+00
1.000001853201859303e+00,3.146193578935694261e-06,-9.794843161506506135e+00
1.000000161869975424e+00,1.651590685212144885e-06,-9.794847266918326412e+00
1.000004655923937280e+00,2.229834718695215597e-06,-9.794852119484010800e+00
1.000007938717264011e+00,-6.526129653831003661e-06,-9.794836588339782324e+00
1.000001885936996571e+00,7.356977498355416231e-06,-9.794851060834014689e+00
9.999991493495471451e-01,-1.652132970713962574e-06,-9.794847325111042835e+00
1.000001911979671032e+00,-2.887461059801741857e-07,-9.794843972127290854e+00
1.000002610946643555e+00,-1.641898556620316699e-06,-9.794841771696042088e+00
1.000000627674840326e+00,2.512607810111137970e-06,-9.794848508204061943e+00
9.999920392990955254e-01,-1.170006226221166603e-06,-9.794847852795120602e+00
9.999994290360258997e-01,-2.993440403478885246e-07,-9.794846138326740004e+00
1.000003649130308814e+00,-2.908072664393164843e-06,-9.794843373559732669e+00
9.999992863225470874e-01,-3.480824968507917092e-06,-9.794843955731865393e+00
9.999963043083065495e-01,3.049716929798755985e-06,-9.794847593580625400e+00
1.000008435707326226e+00,7.012269819393395634e-06,-9.794841791551018417e+00
1.000001631749957598e+00,5.794600163293966413e-07,-9.794840911968410779e+00
1.000006989434934379e+00,6.356868695808056424e-07,-9.794844168232533121e+00
1.000005558641221093e+00,-3.558383146190964162e-06,-9.794840462015905302e+00
1.000002553923801996e+00,-1.484279397695614833e-06,-9.794845508445387594e+00
1.000000315930375416e+00,2.393456301142483457e-06,-9.794847612226373457e+00
1.000001940979464043e+00,5.869134262044764462e-07,-9.794848547837190722e+00
1.000006903672748138e+00,-3.996076950750162216e-06,-9.794844189395297107e+00
1.000009362010725100e+00,-8.413623898892590701e-07,-9.794846855736416558e+00
1.000003139969827259e+00,3.599791544920596976e-06,-9.794840684770324657e+00
9.999974473813398879e-01,1.381954865280867790e-06,-9.794845135670289693e+00
1.000002298748972951e+00,3.794646466545555657e-07,-9.794846825260824730e+00
1.000001772031330782e+00,3.586898576847049716e-06,-9.794849410569231196e+00
9.999952141870442901e-01,3.104789389204096669e-06,-9.794843111440959760e+00
1.000013541891350499e+00,4.108264078373168457e-06,-9.794840605028516833e+00
1.000009051883949951e+00,-2.888941131054996373e-06,-9.794841234991825019e+00
1.000000529502768076e+00,8.438108982124463357e-06,-9.794843291240725947e+00
1.000001785052767156e+00,-3.457060831949757938e-06,-9.794841835436095323e+00
1.000005921042773638e+00,-2.117071466872762911e-06,-9.794845229864069580e+00
1.000004204608275327e+00,2.876351619665410072e-06,-9.794846664734757624e+00
1.000000349267612165e+00,4.068361122268673857e-06,-9.794833884808376467e+00
1.000001162091067819e+00,4.798239045216657198e-07,-9.794849500344714244e+00
1.000001420385932649e+00,-4.710715101312772946e-06,-9.794849279189858038e+00
1.000006650219402271e+00,-2.634129858844454583e-06,-9.794855685333075712e+00
1.000001102750148974e+00,4.719903916123636029e-06,-9.794844431830558307e+00
1.000005968444168447e+00,6.677560991702772094e-07,-9.794844914139551051e+00
9.999990021437860088e-01,-2.860957375960044372e-06,-9.794844063564397629e+00
1.000008339189480511e+00,5.595061430253466213e-06,-9.794851975506553288e+00
1.000003644551182846e+00,-3.383055368900530429e-06,-9.794850939635974640e+00
1.000001266207592554e+00,-5.393709987053428761e-06,-9.794843435463057801e+00
1.000006301860129065e+00,3.687145322986218357e-06,-9.794842319946024389e+00
1.000010046054639501e+00,-4.579455075178558497e-06,-9.794842105346228678e+00
1.000005447985326867e+00,-2.668541338483693481e-07,-9.794838790298593167e+00
9.999985580628039106e-01,5.948049325791391930e-06,-9.794844537107113780e+00
1.000004868303736583e+00,5.814102955840386890e-06,-9.794850969929560947e+00
9.999989536044376903e-01,1.631876923641210116e-06,-9.794850182665514993e+00
9.999998228077812135e-01,4.861213834787991928e-07,-9.794847684374968111e+00
9.999951084243104971e-01,4.349564089127145047e-06,-9.794850494125997287e+00
9.999995426799289655e-01,1.626735505389389483e-06,-9.794844059904193045e+00
1.000000080970227190e+00,-4.136147097440331924e-06,-9.794847010937106191e+00
1.000007509029385844e+00,3.478899437185707553e-06,-9.794841570533634467e+00
1.000008663538116460e+00,8.005889220908902080e-06,-9.794842797805305423e+00
1.000008806971587116e+00,7.613541668845468467e-06,-9.794847724732766991e+00
9.999998692509558529e-01,9.117301535712287473e-08,-9.794841879964124587e+00
9.999980051988083263e-01,9.277145898564461409e-07,-9.794840159733491092e+00
9.999928074739639072e-01,-6.736732293878647982e-06,-9.794842840434233366e+00
9.999922381941803717e-01,5.167123861383468007e-06,-9.794850137437052240e+00
9.999976084549918598e-01,4.557141167533202900e-07,-9.794846622198130959e+00
1.000000755293282806e+00,-3.665310744242045477e-06,-9.794841902410123424e+00
1.000005947050773836e+00,6.894808073416501765e-06,-9.794844047383483243e+00
1.000001894286129955e+00,4.407104118504591846e-07,-9.794837714623733760e+00
1.000004042965609186e+00,-4.032338567350055163e-06,-9.794843318911437891e+00
1.000004526946267180e+00,6.139254755123764341e-06,-9.794850379206302193e+00
1.000002809869227960e+00,2.551850454213877225e-06,-9.794851367399409980e+00
1.000001128698822850e+00,5.525694839115507243e-06,-9.794843158058300858e+00
1.000000968190296602e+00,4.927769694182348440e-06,-9.794842727006738414e+00
1.000002990816066362e+00,-1.706814764787401290e-06,-9.794841529006360403e+00
1.000004913827528430e+00,3.039111023295428693e-06,-9.794843250452078820e+00
1.000002103286952604e+00,4.147858664564437878e-06,-9.794853387929409294e+00
1.000002988119343517e+00,3.345576847302185114e-06,-9.794844855299270847e+00
1.000001801638473964e+00,-2.339709073301565332e-06,-9.794842601982667318e+00
9.999990553497584145e-01,6.048253989197207941e-06,-9.794848815787391416e+00
1.000003040317907876e+00,4.399493775701750649e-06,-9.794848395526949858e+00
1.000004006420326386e+00,-3.156966594627249243e-06,-9.794845072164038768e+00
1.000001949448689142e+00,5.403876452962208855e-06,-9.794846294824271382e+00
1.000005369308328174e+00,6.435051596196746252e-07,-9.794840268483898882e+00
1.000003385768152953e+00,2.240183559804199264e-06,-9.794846718376215122e+00
1.000000655276533479e+00,5.591881888628324946e-06,-9.794846041017061467e+00
1.000003338192185343e+00,5.136589892705462664e-06,-9.794841655243345713e+00
1.000004797306270898e+00,-2.291158462724426268e-06,-9.794851206407345856e+00
1.000001092597468499e+00,-2.182168985458379591e-06,-9.794847366104662001e+00
9.999912394683574401e-01,2.247888932844565313e-06,-9.794850735630282301e+00
1.000001370031337045e+00,-1.036910670436061383e-06,-9.794849183404718218e+00
1.000001390472400775e+00,6.023618628789171744e-06,-9.794849185437618289e+00
1.000004953323750057e+00,4.738167250108539549e-07,-9.794849584091492645e+00
1.000007165877652593e+00,-4.448181350081638238e-06,-9.794858842984325520e+00
1.000003594988949862e+00,2.566381589896398798e-07,-9.794854038521650708e+00
1.000005391545473188e+00,1.060453515778124074e-05,-9.794841201974476164e+00
9.999981544540760270e-01,7.526608759123222304e-06,-9.794846568149981891e+00
9.999937409963138846e-01,4.632065228897085553e-06,-9.794849233891678608e+00
9.999998817138860963e-01,1.359197854552152501e-06,-9.794845119246767595e+00
1.000009605869370155e+00,2.980348177451864794e-06,-9.794846452897674638e+00
1.000000521277924381e+00,1.823447760277051573e-06,-9.794850592198297790e+00
9.999958518614415759e-01,2.936577973938990240e-06,-9.794847177881576883e+00
1.000001900097504670e+00,5.555884027678001812e-06,-9.794851115163814015e+00
9.999996339881671581e-01,7.375293918186230034e-06,-9.794848256741607528e+00
1.000000772244914460e+00,2.511510817801531363e-06,-9.794847033790819779e+00
1.000002328324834711e+00,1.377524048276519765e-05,-9.794839944459411640e+00
1.000001061451190720e+00,-3.517378862140231561e-07,-9.794837050729777062e+00
9.999995751764654273e-01,-3.806551939453384068e-06,-9.794840145022330802e+00
9.999993438859656747e-01,-5.073509017005029464e-06,-9.794853021469583254e+00
9.999968017524839548e-01,2.762405192026278986e-06,-9.794841761605454167e+00
1.000006463422256964e+00,2.537938942728468558e-06,-9.794846133981735647e+00
1.000004011249921110e+00,-2.420552047479594257e-06,-9.794846770702337224e+00
1.000003153759708718e+00,1.180351601756085495e-05,-9.794846086900241389e+00
1.000000358416399004e+00,5.877687348954539977e-06,-9.794844741626056006e+00
1.000004716660626958e+00,-1.572097647890190113e-06,-9.794844832121544442e+00
9.999964055901990889e-01,-2.708253758884399959e-06,-9.794846071397417475e+00
9.999980460250514902e-01,1.324792202502054944e-07,-9.794845463195786195e+00
1.000000191910668468e+00,-4.303097609373922742e-07,-9.794843728393308524e+00
1.000002315467053871e+00,9.975073010874863206e-08,-9.794850365035410178e+00
9.999912448133163601e-01,8.306134768034286936e-06,-9.794841930465775448e+00
1.000001334518284324e+00,-2.281872535116625553e-06,-9.794839277507293218e+00
9.999961762693287959e-01,2.837577643307595834e-06,-9.794849698175751129e+00
1.000005370525471893e+00,3.638227837080541852e-07,-9.794850330335552968e+00
9.999998899029602928e-01,4.820673950941727011e-06,-9.794849354837579014e+00
1.000002457301128356e+00,1.536721133721284493e-06,-9.794841135045279756e+00
1.000007666758253366e+00,-2.907676944433442356e-06,-9.794850485019347630e+00
1.000005079640242434e+00,1.397277277352420338e-06,-9.794846370008901459e+00
1.000003031757778826e+00,-2.517424460840221140e-06,-9.794845646792653682e+00
9.999982768082453788e-01,-9.504547444443155737e-08,-9.794845219085404509e+00
1.000011084120734806e+00,8.823534883076708048e-07,-9.794841590397544095e+00
1.000002709438293724e+00,1.029523129315900506e-05,-9.794848480901162446e+00
1.000006375458172281e+00,-3.718906341835578635e-06,-9.794849280800699276e+00
9.999975406921181031e-01,-5.525165952183411646e-06,-9.794848030316353871e+00
1.000000324213191183e+00,-5.229136115665527419e-07,-9.794846986612750328e+00
1.000003887244892420e+00,4.680381082120931629e-06,-9.794846266152971381e+00
1.000008703953704670e+00,2.958439323816478291e-06,-9.794842884197858979e+00
1.000005883646840399e+00,-6.230015268409080886e-06,-9.794845653671020003e+00
1.000007325624210797e+00,-5.385958307015283262e-06,-9.794850458725857578e+00
1.000007729395919531e+00,-4.474947245900668229e-06,-9.794848706677154127e+00
9.999964261934085608e-01,2.290512688820004335e-06,-9.794841515059301784e+00
1.000004470212766172e+00,3.917232229979976751e-06,-9.794844442717318245e+00
9.999993678485629145e-01,8.095050622240924581e-06,-9.794846103247589753e+00
1.000006253660443933e+00,4.868531263554131140e-06,-9.794848230146596890e+00
1.000000691661953267e+00,-1.906590441245346097e-06,-9.794848083334464661e+00
9.999969805271888834e-01,-3.702751375303110156e-07,-9.794845585451271930e+00
9.999987509831131938e-01,7.072477094031196401e-07,-9.794847809049196385e+00
1.000000826018755617e+00,-4.073326931927529027e-06,-9.794842127917776864e+00
1.000000312200774344e+00,1.834597376475781147e-06,-9.794843627644210571e+00
1.000004545454818983e+00,8.173156152088505754e-06,-9.794835760824630810e+00
1.000003897999806046e+00,4.394121006226806795e-06,-9.794841638994551403e+00
1.000001417242966983e+00,-4.674008137329346985e-07,-9.794841012019949389e+00
1.000000530098879903e+00,-4.033621634883319132e-06,-9.794846611486777377e+00
1.000002258464581351e+00,-5.593405683756097250e-06,-9.794848939896187545e+00
9.999938426660044399e-01,1.205575083804802932e-06,-9.794849697781636166e+00
1.000002111425466911e+00,-6.226033188282656043e-08,-9.794841711886448365e+00
1.000006630467125568e+00,1.411052184973639922e-06,-9.794847223599903785e+00
1.000004753249687184e+00,-6.798949798044248835e-06,-9.794840140097482717e+00
1.000002195246365355e+00,4.764707910126282861e-06,-9.794845725525981095e+00
1.000003913066522365e+00,-1.611267791940431335e-06,-9.794844561121356818e+00
9.999962427656322594e-01,-5.781070338519743002e-06,-9.794839431762285997e+00
1.000001311770740253e+00,-1.574136192019872124e-08,-9.794837586918461625e+00
1.000009644961926680e+00,2.501115241586353675e-06,-9.794847392160454191e+00
9.999993218160508901e-01,2.489809104080314246e-06,-9.794848943874965741e+00
9.999969418430543211e-01,-1.726745155979008437e-06,-9.794853614342768466e+00
9.999988969106656800e-01,4.209064543164800306e-06,-9.794845654921054745e+00
1.000002938622851945e+00,-1.682259981826314483e-06,-9.794844686992755456e+00
1.000010758244668230e+00,-4.040386684734875487e-07,-9.794844776772457351e+00
1.000001480826783418e+00,2.518074985665547747e-07,-9.794850462733036167e+00
1.000006560347302065e+00,5.193513726841503879e-06,-9.794841743298276171e+00
1.000003743688581803e+00,-2.309034030774410703e-06,-9.794845346939830222e+00
1.000008118846774874e+00,-4.366288823603320210e-06,-9.794845859904150132e+00
1.000000134362698301e+00,9.348764312159290788e-06,-9.794853685762831219e+00
1.000002003752575197e+00,2.869569611283030134e-06,-9.794844051484123071e+00
9.999981483653792580e-01,3.497806415498796392e-06,-9.794847361190070600e+00
9.999978654923122878e-01,7.738208471459410557e-07,-9.794846748268430048e+00
9.999998548924174946e-01,4.165694751157254952e-06,-9.794846051001455223e+00
1.000006639837524913e+00,-2.301441928749551895e-06,-9.794840091725783182e+00
9.999986233273289171e-01,7.664289985991209417e-08,-9.794845833043030581e+00
1.000004346959262103e+00,5.002233580827447417e-06,-9.794844757991766571e+00
1.000006144183438472e+00,4.720149005830403700e-06,-9.794841804561187359e+00
1.000000740941899835e+00,7.960971074067499620e-06,-9.794843704082525804e+00
1.000009924099503511e+00,6.681683376560871082e-06,-9.794842587469442918e+00
1.000005430559881781e+00,-1.492220415339992594e-06,-9.794846859770842684e+00
1.000001165717621765e+00,2.126682482530618800e-06,-9.794839157430223153e+00
9.999996211072266217e-01,8.639179492753203245e-07,-9.794846461668731408e+00
1.000004169269695709e+00,-6.291257827244488252e-06,-9.794846496848132134e+00
9.999962117916045834e-01,3.749802330537016621e-06,-9.794848957410295043e+00
9.999958831923524416e-01,-8.373869983698502807e-06,-9.794845749885746855e+00
1.000001630506884620e+00,2.534950217886012574e-06,-9.794845519844331605e+00
1.000004476063901970e+00,2.120327369590605495e-06,-9.794843645502901097e+00
1.000001868749033074e+00,-5.074415351293510425e-07,-9.794842633798682030e+00
1.000004341571576694e+00,5.083141741280913173e-07,-9.794847720474537667e+00
1.000002019511891049e+00,-7.324303281014166047e-07,-9.794848398809310908e+00
9.999988397683674535e-01,1.823791673862934067e-06,-9.794839909809596179e+00
1.000002125753373106e+00,-1.076345526093412431e-06,-9.794843110206878478e+00
1.000003472792660109e+00,-1.081161093586059471e-06,-9.794850989079916914e+00
1.000011031333647882e+00,-6.646362169961075662e-06,-9.794845770092944548e+00
1.000010554390545980e+00,4.325930613541438216e-06,-9.794842532071404761e+00
1.000001200273644919e+00,3.684263250102441350e-06,-9.794840409528562830e+00
1.000006095274474038e+00,2.013693088006498231e-06,-9.794846225532737094e+00
1.000006294499528492e+00,4.876687645724375597e-07,-9.794854113201658663e+00
1.000001750133654221e+00,3.805980884463450870e-06,-9.794844360532126259e+00
1.000002802180959716e+00,-1.517002129321547509e-06,-9.794848421749913214e+00
9.999997084335192632e-01,5.854468115309627895e-06,-9.794843797106414840e+00
1.000001759134153012e+00,-4.354404602008104139e-06,-9.794841668711308458e+00
1.000004276785658952e+00,2.359817640873232821e-06,-9.794845706852825629e+00
1.000002004015566603e+00,-5.341251613356142337e-06,-9.794847860976107157e+00
1.000006793863538190e+00,4.124738889793252723e-06,-9.794839397655820790e+00
1.000002476783854233e+00,-1.377653509851095080e-06,-9.794850534458516833e+00
9.999965483968809021e-01,3.827490048108810374e-06,-9.794845304459304458e+00
1.000000382191000847e+00,-6.619243474426506103e-07,-9.794844173953791255e+00
1.000003597377837616e+00,-2.945485565355357055e-06,-9.794848769151537127e+00
1.000003906013195332e+00,-1.943728931183832555e-06,-9.794842646882431225e+00
1.000004866573984685e+00,4.867938036875891706e-07,-9.794839305372113003e+00
9.999926019804369348e-01,3.524143083791663638e-06,-9.794849304831728887e+00
1.000010368607396449e+00,-5.218204964418077756e-06,-9.794842631466208260e+00
1.000001830520878432e+00,9.736903425409903742e-06,-9.794843971696296947e+00
1.000006323421583243e+00,-2.948714879523975966e-06,-9.794851660163281792e+00
1.000009384938908008e+00,6.758705185857637845e-07,-9.794845749858586359e+00
1.000014313491630391e+00,-8.837524382322940861e-06,-9.794839011837638054e+00
9.999962584170223323e-01,1.845031857407197495e-06,-9.794838997452153251e+00
1.000003609058088605e+00,-3.858663382814670727e-06,-9.794841070296776309e+00
1.000008671309906783e+00,-2.059376603564461559e-06,-9.794848720493281036e+00
1.000004113899159774e+00,5.438804779525353546e-07,-9.794845390039700561e+00
9.999988376763361275e-01,3.498576678665406370e-07,-9.794845123171073809e+00
1.000001132505974333e+00,5.350214857368040937e-06,-9.794851579983562928e+00
1.000004560262708342e+00,-4.333083651626155715e-06,-9.794851729042576949e+00
1.000004970135642823e+00,-1.608284784700743570e-06,-9.794838077362376438e+00
9.999964955206398498e-01,-2.495136230186713349e-07,-9.794840705784293888e+00
9.999973037629666939e-01,-5.770243067928924821e-06,-9.794847802694306438e+00
9.999999456455016533e-01,1.178254746337592144e-06,-9.794852345288422413e+00
1.000005426689027477e+00,-4.207027614725520274e-06,-9.794844849023384370e+00
9.999950453368938730e-01,-6.258910281368245708e-06,-9.794841981047085255e+00
1.000006146265975282e+00,1.700884894927124504e-06,-9.794847975514155536e+00
1.000002138491780768e+00,-2.776469730461261644e-06,-9.794842169657410835e+00
1.000002244003325602e+00,3.978313152399703782e-06,-9.794848308746002985e+00
1.000003893894225282e+00,-2.890093348135972593e-06,-9.794841067039289584e+00
9.999967010119309441e-01,-2.270747317341397618e-06,-9.794848900298607219e+00
9.999984172762862444e-01,1.666403457849266559e-06,-9.794845539672150991e+00
1.000004257110003403e+00,3.284532176648602664e-06,-9.794851060412611332e+00
9.999972890598263220e-01,3.866605586192650128e-06,-9.794835090196560401e+00
1.000008878039720717e+00,-5.982517612725282805e-06,-9.794844429589543822e+00
1.000005018614292362e+00,-9.677975711690701591e-07,-9.794842913187759237e+00
1.000001911718534808e+00,-4.392787626334297971e-06,-9.794844675657756738e+00
9.999992393819762126e-01,-1.234212076952010133e-06,-9.794844575495154970e+00
1.000000664446742737e+00,-3.103177689248049105e-07,-9.794847132538860635e+00
9.999959798332718197e-01,5.777350083284127281e-06,-9.794841915829158197e+00
1.000008391778799410e+00,3.803682499691707688e-07,-9.794843015622102911e+00
1.000008884342379556e+00,-1.355927491840563201e-06,-9.794845809039985696e+00
1.000004772125909103e+00,5.056605541834259358e-06,-9.794851514279301341e+00
9.999987524119152704e-01,-2.691061907181218404e-08,-9.794846497216370906e+00
1.000005192082766392e+00,1.707265860594917168e-06,-9.794849222920662513e+00
1.000007048461742709e+00,-2.202381832074506322e-06,-9.794844906949098373e+00
1.000005312948628822e+00,3.585153656121767782e-06,-9.794851954809155714e+00
1.000010550506506224e+00,1.050981699769477484e-05,-9.794840618182469427e+00
1.000002203947802926e+00,-1.126717933151690564e-06,-9.794842515171666264e+00
9.999949094687000661e-01,-5.457293978532659849e-07,-9.794843068651312379e+00
1.000003439631941715e+00,-8.381056625180366342e-07,-9.794841120200429074e+00
1.000001946246822593e+00,-3.210270854860936080e-06,-9.794847779523617959e+00
9.999978564919101975e-01,-1.299952218413871500e-05,-9.794842124354152801e+00
1.000004050724003113e+00,1.538253147626764710e-06,-9.794846467424040526e+00
9.999992269706855508e-01,6.149956740777703910e-06,-9.794844162574216639e+00
1.000005236422194521e+00,-2.013951927166092686e-07,-9.794849180741643124e+00
1.000007187684228249e+00,-2.961703523956302023e-06,-9.794844700209534238e+00
1.000005874039387344e+00,-1.178053010712785005e-06,-9.794839419379362866e+00
1.000001855257538708e+00,-1.088463233772353028e-05,-9.794848734310114935e+00
1.000000812928502736e+00,-4.457952197329542034e-06,-9.794849873798384010e+00
1.000000865077032675e+00,1.746344532601589356e-06,-9.794843879524144370e+00
9.999988593872045639e-01,1.632481242574965934e-06,-9.794841471355207219e+00
9.999967901896705813e-01,-7.139962790375900676e-06,-9.794844537716951294e+00
1.000003570682960419e+00,-4.395664758719603686e-07,-9.794846156224238598e+00
9.999986721674556378e-01,2.554706843178808040e-06,-9.794846640962367346e+00
1.000006339648889409e+00,6.415043311471785999e-07,-9.794842551405755771e+00
9.999953175134405070e-01,4.086098626037602790e-06,-9.794836541283292064e+00
1.000004809267253547e+00,-2.438013081544181516e-06,-9.794844555975345202e+00
1.000001046898439494e+00,-5.224683098632173324e-06,-9.794844319608378314e+00
1.000006639982135459e+00,-2.259494176654302643e-06,-9.794849921389552350e+00
1.000009324857828563e+00,5.560385926588996358e-06,-9.794843198439089349e+00
1.000001791108725335e+00,-4.074296841491227417e-06,-9.794842425063251312e+00
1.000007623839936688e+00,-1.058461863027058836e-06,-9.794846416692699620e+00
1.000005706143368922e+00,-9.073765072748669538e-07,-9.794849340093600532e+00
1.000003413991490619e+00,2.986425576651642280e-06,-9.794844035677300553e+00
1.000007868261988175e+00,8.929276871665576104e-07,-9.794846278514034665e+00
9.999964742057907419e-01,6.102075279891103216e-07,-9.794851313330061870e+00
9.999995117800648536e-01,3.616093477783482543e-06,-9.794850061317507794e+00
1.000009497805838476e+00,-3.507956469627792527e-06,-9.794852447191399136e+00
1.000001798830249644e+00,6.546069959680341809e-06,-9.794838360983590064e+00
1.000002340581800153e+00,-5.685283731078606960e-07,-9.794848572745349813e+00
9.999997803586307965e-01,-3.837245499779971930e-06,-9.794849260118878576e+00
9.999990185168783352e-01,-1.871308897198357079e-06,-9.794843654917160691e+00
9.999984403973838365e-01,-5.429836874776610434e-06,-9.794850310925143688e+00
1.000005602260806370e+00,-1.580416623808995442e-07,-9.794838155525820156e+00
1.000005103037081122e+00,4.478366255723343439e-07,-9.794842149563539380e+00
1.000007474571532162e+00,7.440193150884385690e-07,-9.794846522307441461e+00
1.000006765382619234e+00,-3.027499872460209713e-06,-9.794840306154160459e+00
1.000003650854712767e+00,3.905999434370240452e-06,-9.794848985401204189e+00
1.000003221421339461e+00,9.335685220791933452e-07,-9.794838847234887069e+00
1.000002955310889341e+00,5.563504806677907611e-06,-9.794850942956186302e+00
1.000002217628414236e+00,5.890947627745475259e-06,-9.794844209028370940e+00
9.999988963773339679e-01,6.438691672016358049e-06,-9.794848300811180408e+00
1.000000437035674095e+00,-4.117253092421569190e-06,-9.794854094110947429e+00
1.000002269751062212e+00,-1.706377289686729815e-06,-9.794844465735526029e+00
1.000007396765298706e+00,-1.385242933733579747e-06,-9.794845622051425948e+00
9.999979227988201602e-01,1.815755884869719348e-06,-9.794844398560917043e+00
1.000010123437901299e+00,2.787655598692402936e-06,-9.794849999655205863e+00
9.999997671467127924e-01,-4.930841280720026396e-06,-9.794849535437348820e+00
9.999971112014708341e-01,-4.898429946965953381e-06,-9.794849454344367601e+00
1.000000641116829403e+00,-3.378355218886743647e-06,-9.794844304336569607e+00
1.000007745818826788e+00,-4.777717697559334971e-06,-9.794846502350514683e+00
1.000001184107423446e+00,2.538555508880807221e-06,-9.794850552536152222e+00
1.000008718083177151e+00,-2.229695410563792422e-06,-9.794843018044669947e+00
1.000004826020750803e+00,1.199726943386334624e-06,-9.794852436933116024e+00
9.999990046935725019e-01,-5.667855372630084601e-07,-9.794844705430264753e+00
9.999979347591452239e-01,1.601570253956435754e-06,-9.794844816498430973e+00
1.000004186952149654e+00,-2.316977138518375356e-07,-9.794845998133974163e+00
1.000004083666892862e+00,-2.685686421676170464e-07,-9.794847654554878602e+00
9.999996470879796151e-01,-2.238655909578204482e-06,-9.794845550056983541e+00
1.000003251728731390e+00,-2.453075383144182822e-06,-9.794837907689222689e+00
1.000011342712424867e+00,-2.861828601337976262e-07,-9.794842837847987482e+00
1.000002141758254526e+00,3.817046069011841499e-07,-9.794837835379013313e+00
1.000004919049127139e+00,-2.877057254092616806e-08,-9.794852810342192129e+00
9.999949583671148279e-01,-1.320197278255101074e-06,-9.794844545993919738e+00
1.000008020705598355e+00,6.800428251779375585e-07,-9.794843820205601403e+00
1.000001708704842063e+00,-5.358293248981755314e-06,-9.794849000048536425e+00
1.000010178199381983e+00,-4.816781801279158910e-06,-9.794850377910290007e+00
1.000003799145719796e+00,7.783613821793527099e-06,-9.794848424147303945e+00
9.999920272595547166e-01,4.923912784161232071e-07,-9.794842778150293583e+00
1.000013918811691438e+00,6.717701895525278019e-06,-9.794841818596022875e+00
9.999975721684395413e-01,-2.297061265520585589e-06,-9.794845320653374543e+00
9.999979736632526039e-01,-2.049534408838301638e-06,-9.794843539525944109e+00
1.000006235829290713e+00,4.464382466844893881e-06,-9.794841200927786318e+00
1.000002683720289554e+00,8.704295701793942833e-06,-9.794846744622363488e+00
1.000002180341500679e+00,3.898909355010871039e-06,-9.794847573627633253e+00
1.000001427469700221e+00,5.228109631909432031e-07,-9.794849932129654491e+00
1.000006746078583530e+00,-3.314802755367015933e-06,-9.794844637831426226e+00
1.000004528818122740e+00,-4.102697243114039403e-06,-9.794844745716698498e+00
1.000003229054507781e+00,5.205507411977538975e-06,-9.794844381501960129e+00
1.000004122769822423e+00,4.327219302196224263e-06,-9.794856072151819859e+00
1.000005952170767154e+00,1.040398330387270136e-06,-9.794850495830424109e+00
9.999912148564401582e-01,-2.585262161826439360e-06,-9.794842786417312652e+00
1.000008130950093221e+00,-1.169324981685861230e-05,-9.794846517928503360e+00
1.000003936832596585e+00,1.781930557992022149e-06,-9.794838689261764486e+00
1.000004605897219401e+00,6.995287521565108209e-08,-9.794843443514317016e+00
9.999982228618345959e-01,-2.432554938012563643e-06,-9.794844403891442397e+00
1.000006925670430258e+00,7.452495471554666388e-06,-9.794848944295466708e+00
1.000002911762609470e+00,-4.399341195054026302e-06,-9.794838037280221954e+00
9.999979270826726552e-01,2.022928587566911719e-06,-9.794840631289005728e+00
1.000009076006562969e+00,4.280412736512422915e-06,-9.794849998827043436e+00
9.999982928406163651e-01,-3.402974240566452026e-06,-9.794844709184465259e+00
1.000005985117758955e+00,1.233038896505578879e-06,-9.794842942375314720e+00
1.000013541153553120e+00,-2.360060834576739737e-06,-9.794846030814936100e+00
1.000007323455155417e+00,-5.687787465984419727e-06,-9.794844265679710560e+00
1.000010085955953087e+00,-5.158299478239195360e-07,-9.794850962372121828e+00
1.000000837989454494e+00,-3.356960366283290396e-06,-9.794844136848363192e+00
1.000001338215008140e+00,1.484648157876803225e-06,-9.794841192359339033e+00
9.999991151723531813e-01,-4.652883429410803127e-07,-9.794851165711699892e+00
1.000000099829212230e+00,3.111782921955206457e-06,-9.794847229412491529e+00
1.000004863786591036e+00,2.693444417340432698e-06,-9.794844617131358788e+00
1.000007012694051678e+00,-2.990943102591394483e-06,-9.794851268464080718e+00
1.000002438496428336e+00,4.170982099998994822e-06,-9.794846983087898806e+00
1.000008028099427904e+00,9.484658180353177725e-07,-9.794840972664831114e+00
1.000007637789590342e+00,1.401236827270177567e-06,-9.794843737818775153e+00
1.000002749341370567e+00,-8.233486594527874211e-07,-9.794847689243342259e+00
1.000002155028769879e+00,2.973614954113354642e-06,-9.794835512847695824e+00
1.000002719380869598e+00,8.807439208380242914e-07,-9.794848586304027549e+00
1.000001571611968565e+00,6.809883333285982262e-06,-9.794849748881393481e+00
1.000004358202260857e+00,7.123505788645157355e-07,-9.794846936513991409e+00
1.000006386118831747e+00,5.420608296157296404e-06,-9.794842998230487652e+00
1.000005314288734404e+00,-5.631058893008798165e-06,-9.794843165211185365e+00
1.000009273833206036e+00,-3.668488614445727475e-06,-9.794844636826365303e+00
1.000004988059444155e+00,-1.462687777174373604e-06,-9.794839662572243810e+00
1.000010323632488429e+00,2.511921646608665169e-06,-9.794844586013795151e+00
1.000009113370833091e+00,-3.432253229826762820e-06,-9.794835072275574817e+00
1.000004764154687420e+00,1.846946715387734625e-06,-9.794845704001689413e+00
1.000002530016203206e+00,-2.536213663262000073e-07,-9.794851277019526847e+00
1.000007184555502970e+00,3.293537269251335305e-06,-9.794841408916894920e+00
1.000003623259561047e+00,-4.628402925834396846e-06,-9.794848939393697052e+00
1.000006080631750560e+00,-4.386085752160048793e-06,-9.794852765483247126e+00
1.000004324973828629e+00,-9.261715218018517329e-08,-9.794847963894438791e+00
1.000003860655400922e+00,-4.720576604001998579e-06,-9.794847426260970380e+00
1.000000938828458308e+00,-3.033489070554907168e-06,-9.794842064167745832e+00
1.000007031434221760e+00,-3.237280647925680915e-06,-9.794845749476888130e+00
1.000005447360558630e+00,-2.976003938168773497e-06,-9.794837885248654175e+00
1.000001613171690673e+00,-7.178667762472232865e-06,-9.794848218847334920e+00
9.999962810114414458e-01,-2.972689300555960319e-06,-9.794854667395425096e+00
1.000000225286274524e+00,-2.221285881716862242e-07,-9.794843319228421663e+00
1.000004120075471459e+00,5.215956646907593452e-07,-9.794846838254290589e+00
1.000005898744896093e+00,3.792485397099472558e-06,-9.794842875669235838e+00
1.000006293973906502e+00,1.090792152482140251e-05,-9.794840793695286152e+00
1.000004007896269753e+00,-8.087983158684366411e-07,-9.794840324462342096e+00
1.000002404758118191e+00,-1.773014324767220508e-06,-9.794848943575733102e+00
1.000006987989158880e+00,3.500384214320305186e-06,-9.794848230087893626e+00
1.000007452396512564e+00,-2.533020715117122640e-06,-9.794845144127535264e+00
1.000001263494022519e+00,-3.953948865213364288e-06,-9.794839473818507614e+00
1.000000351452873470e+00,-3.667198295128272100e-07,-9.794850397892680860e+00
1.000004022788947289e+00,-3.775604259677277907e-08,-9.794847596543494461e+00
9.999974665884933112e-01,-1.018534932790562012e-05,-9.794851103494931266e+00
1.000000978172323807e+00,5.568250510400038367e-06,-9.794842439696990866e+00
1.000004985817314118e+00,-5.694618416978902179e-07,-9.794841290239538978e+00
1.000002770576854605e+00,4.396189045365047811e-06,-9.794847633130615350e+00
9.999923111443858037e-01,2.670970828013399195e-06,-9.794851104536071773e+00
1.000009346881214789e+00,-1.830443264307936822e-06,-9.794845256684698853e+00
1.000002046102679953e+00,-2.315187029061718358e-06,-9.794840054961451159e+00
1.000003006128311167e+00,8.379237984346261882e-06,-9.794842317043604751e+00
1.000006826588450748e+00,-3.736118478362047304e-06,-9.794845723604941767e+00
9.999977616742035114e-01,-4.812000282013139665e-08,-9.794843535955640945e+00
1.000006596044656693e+00,1.777467009431239929e-06,-9.794845971790495653e+00
1.000000932038996870e+00,3.608508141790971268e-06,-9.794843427700966387e+00
9.999973800247938804e-01,3.943559691607549020e-06,-9.794839954210793564e+00
1.000002732406326533e+00,1.103883427477434408e-06,-9.794849499435663631e+00
1.000002508659108891e+00,1.002593991511095079e-06,-9.794847454139864240e+00
1.000001144000147058e+00,7.915744192049838234e-06,-9.794839752390501530e+00
9.999946076029654352e-01,3.869151361137222098e-06,-9.794847022747889653e+00
1.000006357794635869e+00,3.009605354484300930e-06,-9.794845571287059016e+00
1.000004202144455068e+00,2.909894302442227174e-06,-9.794841979252751685e+00
9.999940991303476467e-01,-3.853907082399392685e-06,-9.794848468831892419e+00
9.999985390149718212e-01,4.847996052061044473e-06,-9.794841178261192383e+00
1.000002755765381446e+00,-2.043356418943977646e-07,-9.794847012445535128e+00
1.000003084416744903e+00,9.343324105320703255e-06,-9.794845593521092297e+00
9.999965952168801131e-01,4.385636702983554683e-06,-9.794841362491878201e+00
9.999989388575013516e-01,-2.292348576326311904e-06,-9.794840981834868288e+00
1.000006894001077562e+00,-4.664266349417434116e-06,-9.794842584791011220e+00
1.000009793212286668e+00,2.271224073672392895e-06,-9.794845632340024366e+00
1.000008826389319871e+00,1.047347069396366606e-06,-9.794847853613646294e+00
1.000006147955901481e+00,3.606681083122639159e-06,-9.794843315110853155e+00
1.000008619348124794e+00,3.667662479877391032e-06,-9.794841077589738987e+00
1.000011033295959528e+00,1.046760892341298470e-06,-9.794845320639963049e+00
1.000006748440608106e+00,8.925719409365245202e-07,-9.794841392290262405e+00
9.999976890408394103e-01,-2.253896654016657821e-06,-9.794840271603685977e+00
1.000000553749120114e+00,-2.197083228876839865e-06,-9.794843346925873107e+00
9.999994918750090278e-01,6.319515508451001153e-06,-9.794840606301814745e+00
1.000003177992676351e+00,-1.202290669886239819e-06,-9.794845489543412498e+00
1.000004594676576319e+00,-3.471310247817452567e-06,-9.794841976830502617e+00
1.000001228238996065e+00,-5.672578312133610773e-06,-9.794836171599074603e+00
1.000003039931791182e+00,2.867087294338071930e-06,-9.794837961949003358e+00
1.000008870095257407e+00,1.472546693487794795e-06,-9.794844773181507591e+00
1.000003898957010584e+00,2.222692550333465217e-06,-9.794846060796192688e+00
1.000012036572976992e+00,-4.627900473499143814e-07,-9.794842069868323620e+00
1.000000060550763958e+00,-6.997802706142277411e-06,-9.794841278565382225e+00
1.000010331304060029e+00,3.588233363955065025e-06,-9.794849705154199171e+00
1.000002275639118254e+00,7.437784387312598541e-07,-9.794845925115151175e+00
1.000000066290168910e+00,2.746048431505803265e-06,-9.794843017215329795e+00
1.000007445029430952e+00,-2.234032761303739937e-06,-9.794845542056428656e+00
1.000003135258646481e+00,2.455795660292727162e-06,-9.794844196927412483e+00
1.000009140113090611e+00,-7.395870830198042925e-07,-9.794847466944355929e+00
9.999946962486297997e-01,-1.698360969534579318e-06,-9.794846984647035626e+00
1.000008669121390970e+00,9.025027252243472163e-06,-9.794847406177980886e+00
9.999968406460693071e-01,-3.252647787408730473e-06,-9.794842237092261428e+00
9.999980396545823380e-01,2.509965619801869586e-06,-9.794841710517582456e+00
1.000006023484165230e+00,-7.555586493587823235e-06,-9.794851270250465092e+00
1.000003800161408218e+00,-4.748776286156518047e-06,-9.794843530508913432e+00
1.000004780713601660e+00,7.148773063925417240e-07,-9.794845892646190322e+00
1.000001559491038083e+00,3.011640060732928444e-06,-9.794848425357988830e+00
1.000008101657299253e+00,-4.339169084156360564e-06,-9.794848941618159444e+00
1.000005965210811754e+00,-1.761560141405619449e-06,-9.794851903706200957e+00
9.999977104039022846e-01,-6.339973160340108624e-06,-9.794841541344084135e+00
1.000005522333132335e+00,-2.341801461327043098e-06,-9.794847563268573865e+00
9.999985754232029178e-01,-2.428130295121921906e-06,-9.794846537392835728e+00
1.000001363546634714e+00,-3.238818862346357954e-06,-9.794853843558870565e+00
1.000005415739764203e+00,3.189436681689100989e-06,-9.794839497465806843e+00
1.000004668379423034e+00,3.237305600263074347e-06,-9.794845290764195411e+00
1.000004823664558451e+00,4.819434772937976654e-06,-9.794846599034887191e+00
1.000009626476490610e+00,-1.391364694508129738e-07,-9.794845042020057235e+00
1.000002375524717824e+00,-5.238495062771623289e-06,-9.794845203470039507e+00
1.000002067658376292e+00,2.053621878564898632e-06,-9.794842787316532906e+00
1.000000760779262476e+00,-6.718938321486391460e-06,-9.794840565399855592e+00
1.000001065431580516e+00,-2.229235586473276587e-06,-9.794843725033818060e+00
1.000005362462245362e+00,-1.794158672027813723e-06,-9.794845426526753940e+00
1.000000454919774961e+00,2.197657434132753895e-06,-9.794851007701016243e+00
