gyro_x,gyro_y,gyro_z
3.311700230552928261e-07,6.671014799625799019e-04,-1.417884990865819902e-04
-7.034588042879849666e-04,1.542795448176414183e-04,-5.035079454803869509e-04
2.665154999323274951e-05,3.306688891894878275e-05,6.392105436900430470e-04
1.677936508892739677e-04,-7.017418238930963812e-05,3.165320794443802306e-04
5.820787134564666277e-04,9.456764056439796999e-05,5.170939207208802112e-05
-4.114510286093437638e-05,5.074476481984101575e-04,-8.484061662758739101e-05
-3.991430823453721627e-05,1.104724982662530275e-04,-8.451771307568627101e-04
3.734152001653348704e-04,-1.856332731006127518e-04,1.351602258479751145e-04
-4.499759392577287775e-05,-1.735308699932785499e-05,2.648484279744828140e-05
5.166347314915677039e-04,1.726847530022510631e-04,3.355144973604940167e-04
-5.233326640698419182e-04,-9.472186852763107097e-05,1.310812995547619235e-04
-2.373921277674631743e-04,-3.758679836613151057e-04,-2.201600462073594782e-04
3.885001114119897249e-04,-5.207623873353647631e-04,-5.420737998457286159e-04
-5.826498898611747075e-05,-8.007420957372548599e-05,-2.126495151329688095e-04
-3.897888124797663700e-04,1.805119318773953246e-04,9.833595949147036562e-05
1.826829584692989204e-04,3.812902199835066746e-04,-1.404133984313307465e-04
-8.364472502098196970e-04,6.126024521858332150e-06,8.259561811687745128e-04
-1.717664900543401066e-04,1.701732352775307193e-04,3.561456390228007657e-05
-1.937244857727597356e-04,1.317818565407889025e-05,1.679892402648235062e-04
-9.437891842540314111e-04,4.180753498922848345e-05,3.170718432148966428e-05
-1.918851813493331572e-04,1.042144256541410052e-04,-7.748936841927246883e-05
6.990745384314483481e-05,-5.311789873659713342e-05,1.219933135307840131e-04
-6.751985398992428351e-04,5.335129043663517550e-05,6.686391124896685738e-04
4.254127344993406472e-04,-9.932596871290781085e-05,-6.452985246499921661e-04
-4.132569887037119754e-04,2.509321695420539959e-04,-2.315109637942101687e-04
-1.993465271415466528e-04,-6.203264545452623700e-07,1.026864877868839091e-04
2.384550904054196614e-04,1.291856462791777474e-04,3.902612366552619927e-04
-2.410274039197945789e-04,4.474922707071470377e-04,4.385355981405200123e-04
-2.542283014357000831e-04,2.972047711043057021e-04,-2.127197631330870174e-04
-1.776647100222661726e-04,1.029946572772694327e-04,3.081978621440792897e-04
2.946454282189402423e-04,7.905113571572030444e-04,-5.738947229737454640e-04
-3.220847927170444332e-05,-1.572902928168481138e-04,2.113950852001327744e-04
-3.200390658300425245e-04,-4.219188735448314354e-04,-1.544619443043027454e-04
3.335752094274761922e-04,-1.961208190969440115e-05,-3.982569438590792088e-04
-1.695177443684125270e-04,7.156805298590484610e-04,3.347271574277662395e-04
-6.110748793836299044e-04,1.740579888756615089e-04,-2.830615499826316813e-04
3.035344521375831764e-04,1.778740911578754764e-04,2.311998412878580830e-04
4.146296370643099056e-04,-4.064113206392265098e-04,-1.407802276871707571e-04
-4.911071603366399229e-06,1.093192018824977810e-04,4.472827051452762806e-04
4.877289069768623643e-04,4.296556121425300573e-04,-1.121102713838714526e-04
-3.609865787229079638e-04,1.926575492273142312e-04,4.443993131860592789e-04
8.686998979836436192e-04,-2.905051318590150104e-04,3.394652130511443297e-04
-4.154883314657753903e-04,7.238852339328358699e-05,4.272900467474696480e-04
-3.952514240029744957e-04,-2.813474246919958057e-04,1.315659912494148440e-04
-5.568573307016664717e-06,2.332510161709085996e-04,-4.906567744498264386e-05
2.334610215386903934e-05,-1.925141544998115381e-04,-1.858437815397567013e-04
-1.173387780018307316e-04,1.806628885863793355e-04,1.359630320369303858e-04
4.768190795909655081e-04,4.795392790426754315e-04,-1.683913292559311890e-04
1.607994779481289533e-04,5.001018754725954345e-04,3.080557637245105035e-04
7.751475411580839039e-05,3.848225160956340526e-04,2.885392887311781637e-04
-6.042121191101531587e-05,-1.044251647432788507e-04,3.297586787966465868e-04
-3.909447568635958744e-05,-6.791276365539827744e-04,3.104069907361025281e-04
-9.352781004473089169e-05,7.561349221525572170e-04,6.494112404172779031e-05
1.558117160633799804e-04,2.149633762007794059e-05,6.941029576290523801e-04
-2.028861840725068252e-04,-1.141018217795994311e-04,1.961451070710592398e-04
-4.183435538282185044e-05,1.691841078588076177e-04,3.364508951010232148e-04
4.233912776751206752e-05,5.747048257951755594e-05,-3.556031348825041088e-04
3.839111208852673631e-04,-5.359090284391232299e-04,-1.004913221286254612e-04
3.563827723162132921e-04,5.675063159112876459e-04,8.935976552085091553e-05
1.449435032429010706e-04,2.564124999132599012e-04,4.307818710641794259e-04
-4.132725601491106992e-04,4.507939602905641405e-04,1.300513473285619945e-04
-5.586739303974962379e-05,-4.181736510852654366e-04,-4.292071647523075664e-05
1.010733061147460780e-03,6.003320410274481196e-04,-3.335548078152362648e-04
7.561738413443334613e-05,4.151850305287235955e-05,-3.746299181056444820e-04
1.996356199999186557e-04,-3.218318132827068206e-04,-5.699417325283866057e-04
-2.901020806748522509e-04,3.351194951846489696e-04,-8.911736194952256667e-05
-2.740374941179236391e-04,-2.826128059959202645e-05,6.467781057939077935e-04
4.531986041572082908e-04,-3.794649594928727792e-04,1.236413625422736449e-04
4.095119152565668144e-04,7.917438960124085004e-04,1.996475771083030214e-04
-1.317321032553441537e-04,1.016370316259799952e-04,2.892963659930937143e-06
9.769009687182771996e-05,6.044081546903733214e-04,-3.656782685338187482e-04
-1.476928436948651596e-04,7.421964093086628436e-05,9.254816571367361375e-05
2.645837123681262773e-04,-1.522878189516815894e-04,-5.454843723824903191e-05
6.813382165779751189e-05,-9.558211438114284323e-05,1.105062197007853307e-04
3.390819629674121649e-04,-7.640997969299791648e-05,2.806919355412352060e-04
-1.788560625742945109e-04,-1.456743691757319918e-04,5.614973911359594444e-04
-2.618505080305553903e-04,3.714725328547049369e-04,3.780990782652639661e-04
-3.508711577163783099e-04,-4.712044608608921293e-05,1.931433400346510478e-04
4.784072262872343683e-04,-4.621222738925533769e-05,-4.625683515634375484e-04
4.303588455723329526e-04,-4.954215811725489003e-04,3.230570695662189629e-04
-3.170155696685644634e-04,-5.611362644256651230e-04,4.772512783001393237e-04
-3.505527188038237685e-04,8.383846833178092790e-05,-7.619505978016925688e-05
-4.601363142142857621e-04,1.087643229878846110e-04,5.977713631175067457e-04
1.360047394295294952e-05,-1.447613561872854821e-04,-1.084989638230830208e-04
-1.021759660223607695e-06,-4.453007248597720138e-04,5.144350264839678407e-04
-7.439108677433790753e-04,1.649540048874205395e-05,4.836689661495471707e-04
-6.197173625327643230e-04,2.786071793555387733e-04,2.146873112495347716e-04
-3.512941878844905733e-05,3.866381016955064915e-06,-2.817927397016253117e-04
-1.322372136897887249e-05,9.273578799478976605e-05,-1.395379893386880293e-04
1.580822854540141404e-04,-2.684327982998617967e-04,8.991187144008693465e-05
-2.841531403629902076e-04,-1.074107291880147013e-04,2.274935108863653291e-04
3.136740321155800037e-04,2.298272702308958406e-04,6.080234395987022368e-04
3.225213179899365581e-04,-6.965341844067804097e-05,2.805821677090480698e-04
-2.329075839079101668e-04,4.477396593016603891e-05,-1.850058340059595032e-04
-5.535540593725383996e-04,6.069138048716559179e-04,1.505975985528338788e-04
2.884877057066527603e-04,-1.163875840184338863e-05,1.828942549936952815e-04
-2.338231826179630157e-04,-3.067391479778721892e-04,-8.036816931132541742e-05
5.688090262041789989e-04,2.248661888999255393e-04,6.766076840383073018e-05
1.465738532482789916e-04,-7.166915786374203812e-05,-6.320538268633252472e-04
2.178801083380785470e-04,2.530826553511016336e-04,-4.636760415595351072e-04
-2.095759428246641101e-04,4.300834500298421630e-04,-4.648423131408755673e-04
-1.801287053326828787e-04,3.086622384067451040e-04,1.701167860432522118e-04
7.830361079492653871e-04,9.554252837559513609e-06,1.367781805191658833e-04
3.561954403601108035e-04,7.353492703521233883e-05,-3.126702437093391404e-04
4.322434428183427732e-04,-2.892501583964488540e-04,-3.872517502969848838e-04
-2.965232677889458371e-04,-1.359239345956207354e-04,7.704683578542897765e-04
4.991379641356304245e-05,-3.040266341754891874e-04,-7.011680494421931300e-04
1.799324807119110844e-04,-1.653866792860911946e-04,3.524138712061396076e-04
1.656268541385018866e-04,-2.090151956186257396e-04,4.540754362053001439e-05
2.519866097301520384e-05,1.574465008598544826e-04,2.027298171863657931e-04
-1.458025882865956232e-04,3.008230275641019099e-04,2.338953584515977727e-04
3.519156465021537400e-04,-9.374923659434811673e-05,2.777670940933464486e-04
-2.739928337907705054e-04,7.987180068433939533e-05,-6.350409352933136819e-05
1.547452762428621318e-04,-3.086851489249429104e-04,4.653102765306536023e-04
1.460124477908875920e-04,3.404689898187048306e-04,2.514244738053881905e-04
-2.454694866201439780e-04,-2.253112536644925261e-04,2.889955465816710441e-04
-7.765873773945048309e-05,-5.366463493401668183e-04,-2.679985484758180174e-04
1.878520581316341261e-04,-2.536810193985879124e-05,-4.847267343623129780e-04
9.528881433246846823e-05,-1.270652034607030827e-04,1.445384906475004837e-04
-4.755226812821919348e-04,1.384664214064418178e-04,2.927982186803043446e-05
3.841606362238722322e-04,-3.349208831633254560e-04,-2.142642502386745969e-04
3.219811141544354628e-04,-1.753742743951276913e-04,-2.866143792753192442e-04
4.640043562484699171e-04,3.463953451693885612e-04,-1.794828725175377803e-04
-3.112563238222189744e-04,-9.960738673220788375e-04,-3.618300070580565556e-04
-1.522500729139303604e-04,-1.471683835309734031e-04,-4.298710395722456722e-04
2.537520235001995542e-04,3.122894564376766405e-05,1.520065077649718275e-04
-6.883290908769095699e-05,-3.221630759655736060e-04,-5.659457814585160271e-06
4.263717518185208919e-04,1.589860565866791210e-04,6.322441379468810637e-05
-1.170935456026642700e-04,-7.294967275897324104e-05,3.125949672663021791e-04
-1.983409692686132896e-04,-2.534096687930155012e-04,-3.263796825219324584e-05
-6.187721766947098254e-04,5.743012423354924281e-04,-3.406647675452147399e-04
3.049097923543611231e-04,9.049105461242608393e-05,7.511193867686719559e-04
2.109816109232274031e-04,-2.055095452501480243e-04,5.185641589134343905e-04
-9.843587706520887310e-05,8.636211556784718674e-05,-6.358146228505988503e-04
3.170696629311783187e-05,-1.000827207387639638e-05,1.839062738833140967e-04
-7.102269960508707973e-04,4.179368595995886578e-04,-9.133830551279760836e-05
5.667200111188389717e-04,4.558499629523724960e-04,-5.017392751832906121e-04
-2.080033576617030503e-04,2.284391982820598650e-04,2.466659720025781138e-04
-6.174130104467225131e-04,-3.374623313177583465e-04,-3.220410775621055711e-04
1.994998878564453824e-04,-2.435113370934041547e-04,7.233572562042324915e-05
1.830677720103654395e-04,2.017115031724098597e-04,-8.555168021652497651e-04
2.367785956443552793e-04,-6.699108299802002510e-04,-7.378875894009185926e-04
1.992442603282046907e-04,1.670793441189207949e-04,-5.071410351000671824e-04
3.308231410045143258e-04,-1.290687450216271596e-04,-2.287613557077903853e-04
1.449329601959888688e-04,2.073652026413547774e-04,-8.651347560396204972e-06
-1.021842939500207637e-05,1.305620288776357439e-04,-3.957911912474842042e-04
3.123063550336361449e-05,-1.590834810038774022e-04,3.916479917109807639e-04
4.846232648729303363e-04,1.884929247585900543e-04,1.305791029171236059e-04
-3.083921649655245825e-04,1.767453768146917431e-04,8.890392350198731748e-06
7.018662925605223491e-05,-7.037616721694470620e-06,-1.665365079040313659e-04
3.091005089625353981e-04,5.353571452012387591e-05,-3.040525105395258253e-04
5.609305327551229606e-04,-1.092201617115314552e-04,-1.333348351956293795e-04
1.815392223821883047e-05,-5.238836236999415722e-04,-3.151789342837188544e-04
-2.371564608619173989e-04,-3.560111168236523046e-04,2.250520433370839616e-05
-1.619083969478082505e-04,1.750688408255772531e-04,3.175050088932201888e-04
2.666518030768512404e-04,2.071516216429235345e-04,-2.514552364810692482e-04
-6.256682397443260970e-06,6.111976968026545942e-04,-2.761203517663728449e-04
-1.718898549362202547e-04,-1.719962245750097636e-04,-1.535947761079052174e-04
3.169847749682439550e-04,1.363033776859214638e-04,1.176652358161247983e-04
-6.292510988261183465e-04,7.415105454837763333e-04,4.981164898486401113e-04
9.066742422690583303e-05,3.604717481290036917e-04,-6.182833591947523542e-04
-6.078399342511434534e-04,-8.468924981821805783e-07,3.641785241576112986e-04
-3.861271525841940299e-04,2.575860809510695476e-04,9.238394726058231040e-05
-2.084885331973773909e-04,2.491671686369591686e-04,-1.095173097930787244e-04
-2.962224822411556563e-04,5.592399282907633802e-04,-2.638607849568617558e-04
-2.147344647447667668e-04,-2.143082125922414136e-04,6.146643508714531032e-04
2.098476271727430593e-04,2.391217577408506051e-04,2.170119289525097842e-05
-2.390127029032739240e-04,-1.192825462055521020e-04,5.547434830867621055e-05
7.206434490376908519e-05,-9.826808749848732559e-05,-4.283820407049190827e-04
-9.733996465127353105e-05,4.739559854500240165e-04,3.732771925557067149e-04
4.047826789301089251e-04,6.929437656134257754e-05,4.826159001410102183e-04
1.078457856107742753e-03,2.286818392510167196e-04,-1.268415986778458917e-04
1.676178212736275871e-04,5.078297570013699336e-05,1.754635507967580062e-05
2.827917431907886513e-04,-4.276576239338293004e-05,-2.019911986021857202e-04
-5.288331380793069234e-04,3.926889917037546841e-04,5.283961462951109953e-04
-1.205695376942541019e-04,-1.278037397307460953e-04,8.965274108523925162e-05
1.194883132084434798e-04,1.758615016689004068e-04,8.977454865674145649e-05
1.810545786405625942e-04,-1.686022877921152625e-04,1.876434905351245428e-04
4.543480036015161471e-04,-1.310761128196273789e-05,4.975604987023967476e-05
-3.819848541291498748e-04,1.193986113351494250e-04,3.665382835720684619e-04
-5.265508050412546657e-04,-1.023911632425126363e-04,1.824511903426397671e-04
-1.193972286592094890e-05,1.974265103738440206e-04,5.866256916736586170e-05
2.890503008738314430e-04,1.156888916404379098e-04,5.159074391797240739e-04
-2.359251947206569182e-06,1.908832470486710527e-04,1.750280583671348883e-04
-1.025707933286712720e-04,-7.114019867316353249e-05,-1.669969469658456483e-04
-4.490614292226322111e-04,1.773501878646800852e-04,-7.211974011168056507e-05
4.523458824899668107e-05,-1.238528504020623006e-03,1.242623676382393608e-04
2.424775811780683200e-04,-1.896741683274499608e-04,-4.213735924710929168e-04
-2.061206319638574775e-04,2.319259230715938109e-04,-3.914813662567583215e-04
3.626766336207961120e-04,-3.749121535926135942e-04,7.352042703336750858e-04
-2.481375000010476719e-05,-3.086219503678915054e-04,-1.040756764245419371e-05
-1.668631668134437529e-05,3.318643680735033094e-05,2.119307653151339236e-04
-4.376523984095100983e-04,1.174745152814788020e-04,-1.622154839522101794e-04
-2.547346708688274001e-04,3.911442413190817499e-04,-1.307670250322694736e-04
1.512402565200216366e-04,-1.222065398351272856e-04,1.508541940243392546e-04
2.756153617842463968e-05,-3.585523806504089172e-04,-1.438615755044326129e-04
-2.577412887445796491e-04,-3.155398257111378127e-05,9.727175370752744491e-05
3.905102464534708582e-04,1.547061256038253336e-04,-4.345174765192865818e-04
1.029998429382695673e-05,-6.831845502393521829e-06,1.585407904966259043e-04
-3.448906309574731040e-04,3.630047139227233978e-04,4.585796090399302792e-04
6.753860223546485561e-04,2.540441495225624451e-04,1.773136974781572490e-04
9.628108486721050367e-05,-3.513420632310313472e-06,-2.753944925734271823e-04
-1.389994660569563757e-04,1.524274745661993355e-04,-2.658279640613617212e-04
2.370497550994030622e-04,1.879527273289077801e-05,-4.595052836632376194e-05
-6.864290927776913831e-05,1.058362230408797187e-04,2.381232685905356871e-04
1.572935004221248537e-05,1.317648383236771947e-04,2.247652005179292807e-04
-1.569967264971492359e-04,6.498326602764902026e-04,-2.964756015442136208e-04
5.666072356405596412e-05,9.850099505258501018e-04,-8.499564333849508836e-05
-1.201046392262185075e-04,-5.308012777594695204e-04,1.369635778812518939e-04
4.565758500306452356e-04,3.078368343410131333e-04,-2.882983521234748383e-04
2.986412548206633113e-04,-4.558421618286458382e-04,-5.083444778675953041e-04
2.938426387699412346e-05,5.045138141401597336e-05,-9.433947883846845493e-06
1.985719963931789904e-04,-2.025191472932254852e-04,2.428436973949297747e-04
-1.473685503498566322e-04,-2.702892548070447132e-04,2.962115135484470167e-06
-3.707471658795985292e-05,-8.273601931235956134e-05,2.259477190543795935e-04
-5.885297078536086976e-04,-4.206175593804188043e-04,-2.980047825835964383e-04
-3.302495779968756375e-04,-2.040924848909378777e-04,-4.616213389066553476e-04
-1.176656802660238152e-04,-5.322839215414636757e-05,1.090224603765128865e-04
2.980300549625811081e-05,4.536069556446217657e-04,-6.930496780770410746e-04
-7.337337522343471627e-04,3.376870462607671161e-04,4.386371553229369345e-04
4.710074399154401067e-05,4.395540386527623872e-05,-4.612028132918358074e-04
-9.140999737612402385e-05,-1.375259000614869524e-04,-2.706945885639291819e-04
-1.264675092013272798e-05,1.088826889299521406e-04,1.994065128234566951e-04
-5.840490276035535623e-04,2.789244973443834565e-06,1.394843505757015743e-04
6.032695274722500758e-06,-2.719415753327746304e-04,-1.372534810215180227e-04
-5.222829566267126302e-04,5.522306010588892006e-04,-2.217390774108846812e-04
1.398141706976266557e-06,3.960990474053674090e-04,6.155023749170151614e-04
3.080474386784878360e-04,1.343279917732304659e-04,-4.653866892462472406e-04
-2.495471016097606186e-04,-1.991550546083861858e-04,-4.018754265737227937e-04
2.304375215292174658e-04,3.114374498819384176e-04,-4.441589206649181076e-04
-1.388468029393119139e-04,-7.028658211211512167e-04,-4.814962185159659953e-04
-5.673684560993798960e-04,-2.472316250958474172e-04,-1.185455778809744478e-04
1.833133683238963169e-05,-5.863206214172067381e-05,-5.016326607421671543e-04
7.175590926755281594e-04,-4.204727241175519126e-04,-1.184434973650349984e-04
4.608758225206298072e-04,-1.864886981021944405e-05,-5.229615637082266457e-04
3.687232477762179459e-04,-3.521704790246427174e-04,1.874022783110455208e-04
-6.547330119875039063e-05,5.217883030148511925e-04,-1.433638594285238199e-04
-4.388964234308760084e-04,4.025387688899798163e-04,-9.337962755223695429e-04
-3.905120992002557344e-04,2.293996223339475355e-04,2.748969014178962711e-05
-2.980334184410284742e-04,-4.961619912633737474e-04,2.963313274772838351e-04
1.994795065824749350e-04,-2.601738240630380671e-04,-1.776190265148041409e-04
1.472740227146170523e-04,-1.301825494062392341e-04,6.867130659920115342e-05
4.255230880783117593e-05,9.826126930742610447e-05,-7.007083250117427525e-04
-1.878837831555138721e-04,8.449443788429289307e-05,-1.611480491144649189e-04
-4.911437527939905385e-04,4.003220017636959535e-04,-1.442358400747032051e-04
-4.640205495026048692e-04,5.095596362794352048e-04,4.349984085165278683e-04
1.336508232861513795e-04,5.256111978506703829e-05,-2.952261670456134482e-04
2.941939734016640082e-04,8.057634132766405664e-07,3.949666018049759284e-04
-1.046891808421907856e-03,5.056230011421570820e-04,1.658916636531652836e-06
-5.007661313999569241e-04,2.650847346884698495e-04,-2.935282941265389330e-05
-4.829460849405098062e-04,-5.076170960580980555e-05,-1.808695715267334702e-04
-1.764047514689735959e-04,-4.376336402838778812e-04,-2.069582323334438854e-04
-1.969318712238211022e-04,2.039922239101902288e-04,-2.726983751514942171e-04
-4.528850928941034184e-04,5.040292943257781814e-04,-3.450407813643667802e-04
-3.995929000988458183e-04,-1.195753532187176002e-04,-3.476612167905666494e-04
-3.642007318155033951e-04,3.912410372206709527e-05,4.364182314246657212e-04
-3.061079267652596613e-06,3.168241063849807954e-04,-3.062342455746801207e-04
-1.046488808612971706e-04,-4.984439133953172786e-04,-1.660248219913245565e-04
-7.670319441862598797e-05,2.971787326487012487e-04,-5.558039365992554050e-04
1.743189899959321498e-04,-1.065301485660777867e-04,-7.911716129388885735e-05
-1.168618044583550072e-05,2.448790479890204023e-04,8.859281425495548618e-04
3.948763941937282829e-04,-1.598303906630425982e-04,-6.128771530338723112e-04
1.516620511213312070e-04,-2.110708635944046229e-06,5.172186816961482002e-05
6.654796533399420051e-04,1.142663177142047375e-04,1.938917449299119356e-04
1.031975031004122635e-04,1.339395151831892605e-04,6.718190682932091002e-05
4.761010194843147430e-05,1.994277867208567138e-04,2.797832252415159509e-04
-1.663272529625347304e-04,-4.227374670438556448e-04,5.129686776153629486e-04
-1.212144007932652162e-04,3.929008141908908237e-04,3.669483425925537429e-04
-1.117738638649218996e-04,2.517353866443473452e-04,1.062724396178873966e-04
5.833734693145324265e-04,-1.824277385142703879e-04,-3.732181037985810349e-04
-2.438122155946006195e-04,5.989516817188979313e-04,-3.594612196508422666e-04
-3.514250998114852934e-04,2.044248729495745578e-04,2.378367506375189439e-04
3.657722691725484479e-04,1.218081298773566958e-04,5.889425762338698785e-05
-3.217809647204053665e-05,6.363030396470288066e-05,-6.501697429048473149e-05
2.499796925331120739e-04,-1.675741392559306040e-04,-5.335618987259240945e-06
-7.965669108188911372e-05,1.305781299226033111e-04,-5.790629257297051386e-05
4.384553528441192407e-04,-6.272791224883174583e-04,3.996007703044777656e-04
4.736414869815956880e-04,1.194250953830123635e-04,-3.966496928668326503e-04
-5.479713955652785735e-05,-3.107302467358436719e-04,9.680382473890778415e-05
3.122326809526632498e-04,-4.860246317537239265e-04,2.024207153754758201e-04
2.903137520758136236e-04,-1.737156586771453645e-04,-1.560818300354092187e-04
-3.505604228249702180e-04,4.782909904650952792e-04,-8.794728840732145904e-06
-7.144149301376216221e-05,-2.992722125736673380e-05,-2.650900784983256626e-05
7.917005072418699255e-04,7.421374439613874279e-04,4.013526308054292694e-04
6.122198000492939593e-05,-1.566233883186153827e-05,4.621354954109724105e-04
6.526802318851125575e-04,-1.376548707786423554e-04,5.359421461440542957e-04
1.283668141026338681e-04,-1.628264372358269267e-05,3.659564119188462726e-04
-2.410541027579598693e-04,3.364342766422180831e-05,-2.163361630505161398e-05
2.439597616979576641e-05,1.966441336374169044e-05,1.619631081140885580e-05
-9.057647645744815634e-05,2.265615207403637950e-04,-4.451340765967621064e-05
3.181728404807954912e-05,-6.210012374088388302e-04,-1.105038411956191517e-04
2.400457130084651864e-04,3.347675366283436242e-04,7.193587052339336897e-05
-1.174080667862100375e-04,2.527318024424152123e-04,4.058965123664168631e-04
2.752547283747384439e-05,-5.361118854115470627e-04,2.859497785199435218e-04
-9.777258470215031017e-04,2.741970861707401845e-05,-4.099387590370697334e-04
2.126614364966324610e-04,1.785163723365736923e-04,-6.912321550113795579e-04
8.266566305866494878e-05,3.391724964117367471e-04,1.670367681690142019e-04
2.945402942103052431e-04,5.004037798692147383e-04,-4.708075835245645584e-04
-5.360615434348218848e-04,5.705194386710309411e-04,-3.536604475691020586e-04
-3.621687105490221329e-04,-6.591263553036604125e-04,4.091417320254742726e-04
-8.693348919577586380e-05,-6.232907197453687604e-06,-3.430252908755443978e-05
-2.799912746891754819e-04,3.042639665393582441e-04,-3.481548857206353317e-04
2.437864206196695875e-04,-2.148931299996551894e-05,5.145841894818401624e-04
-1.554551922994311885e-04,2.320361351786287877e-04,9.374912505454512882e-05
-6.970817186304582034e-04,2.496672674407786905e-04,1.048386528519715136e-04
-1.317996031096401268e-04,3.446110013592518879e-04,-4.970482451993999979e-04
-6.397836632784000823e-04,3.681271678470365567e-04,-5.552874482885291393e-04
-1.999267039591541627e-04,6.917986282004420567e-04,1.195786725499538246e-04
7.960360677074203924e-05,-2.068347954034843207e-04,3.615712179038651835e-04
3.611711269783467301e-05,4.354170114423433924e-04,-2.508369106281784357e-04
-1.170943741721567331e-04,2.395079783753066831e-04,-9.539258683411973392e-05
-1.408045319364413354e-04,4.848423565233326432e-04,-1.192739909791235708e-04
7.335792324761877597e-04,-1.542642676154935529e-05,-1.739157076628965344e-04
4.814209249722439083e-04,1.337145226805881021e-04,2.242411771985587470e-04
-1.404761903352891563e-06,-5.244079090513171408e-04,-3.278408130332916568e-04
6.017782119188575543e-05,4.009344598980601527e-04,-1.020422944818653757e-05
9.728484782553685289e-05,-1.671001767423086913e-04,4.218755743945115368e-05
2.162576339647657477e-04,-2.000121821220032374e-05,-3.135322308802092036e-04
2.913690033727648308e-04,-5.973601580517825041e-04,1.396230019558609167e-04
1.760894291646944920e-04,3.953976899702475712e-04,2.537115377214877766e-04
1.434459370084607236e-04,-1.329390524298563775e-04,-3.310793682685306532e-04
-1.016012340896326117e-04,1.968539389647118172e-04,-4.417925181370996736e-04
-3.563343011699339155e-04,3.955331535953310025e-04,4.116576698440823886e-05
-3.024402811340943143e-04,-1.886816131214126677e-04,6.667827636856692142e-05
8.860540601672555611e-04,3.947565374958085624e-04,4.612100274548655809e-05
-2.949828307338575747e-04,-7.241857010870097420e-06,2.994184705054297275e-04
-3.170838827473822035e-04,3.984423234219406956e-04,2.513156367831234322e-05
7.460763722513896019e-05,3.624913309017373356e-05,3.370104750116788631e-04
2.458361414854782091e-04,1.302898149368875429e-04,3.250384603386159547e-04
7.956456576124575335e-05,3.083881308513286763e-04,-7.080016755929430662e-05
-5.385411477620428555e-04,-8.338055555542517620e-04,1.101957490200481857e-04
-4.991003026618115630e-04,-1.366388525302842847e-04,2.334874883270593405e-04
1.575890001071988077e-04,6.548067936390103503e-05,6.349740081811762048e-05
-2.173689673516284435e-04,-5.602755261943555016e-04,-3.864159142707915674e-05
2.716641815196510081e-05,1.241758422177016903e-04,1.004755890478447786e-04
-2.758043667348613823e-04,-4.928487200053884758e-04,7.336613128201962685e-05
-8.097373746350443303e-05,-2.466298797258598672e-04,-8.830086556364543477e-05
-2.897113619539517333e-04,4.394778561697318116e-04,-2.336108563963659127e-04
1.438798319889385410e-04,1.077190715346782764e-04,-2.381054151389657770e-04
1.956290664407937644e-04,5.005250305146849047e-05,6.209573995133793535e-05
3.616912001731328202e-04,2.151684642698526080e-04,1.692008029077161360e-04
-6.623124966499916106e-04,4.937740855938988231e-04,-2.195027320266057817e-04
5.976448984251842228e-04,1.809698848736715233e-06,-2.979796063240588056e-04
2.686935316302070035e-04,7.728035041285371675e-04,-6.744500616009343639e-04
-3.159485623786424387e-04,2.410181690888374569e-04,-1.163523853349802462e-04
3.217218341543634941e-04,-1.038222204700602140e-04,1.502556055302881196e-04
2.109482971243429521e-05,-1.555455804398425278e-04,-5.261841383121675618e-04
6.008028056720113091e-04,1.177712588168982325e-04,2.658566446544363021e-04
2.728497508946815331e-04,-1.771710846786056818e-04,-1.415970956224831098e-04
4.047798945021444657e-06,5.261862137881671755e-04,-1.600042503066671524e-04
2.629611637142137133e-04,-1.153817251624082561e-04,-2.757678729267391436e-04
3.745721382551468509e-04,4.084049945054268101e-04,2.474973691628049315e-04
4.777035400923308880e-04,-5.947992804790108072e-04,3.747089006081191862e-04
-5.080379085712422233e-05,3.750748603330636140e-04,-8.848187819449414391e-05
-2.106995577949684003e-04,-2.190280410618548890e-04,-2.185252009541947306e-04
8.166548221551354393e-05,-2.920173330814758591e-04,3.259356004676308206e-04
5.287617997770672606e-04,-2.689868645391106866e-04,8.578076765019445053e-05
-2.615122304290965253e-04,1.416145164448318083e-04,3.987188805914146199e-04
2.301971210411166288e-04,1.673737773642493720e-04,-4.206060924442412314e-05
-2.762945077176296111e-04,3.149510551983239395e-04,-7.360624818888887111e-04
-1.945153406470364341e-04,-7.382441475138550144e-05,1.022658309311944675e-04
-8.666794129017746482e-05,5.435578565805966416e-05,-2.014669167468370449e-05
-6.070888554995121453e-05,-3.902250341410294795e-04,-6.794995390234857249e-05
-6.401184327194122899e-05,3.381178001643189474e-04,-1.268712850177687167e-04
-2.091543461607167599e-04,1.950486505234484973e-04,4.993674215517263787e-04
8.277477034412212761e-04,-6.989391416565965930e-04,-7.957821919630454267e-05
-7.406182223131839914e-05,-4.467829560517097023e-04,3.462234930475643056e-04
-3.425666526820326331e-05,4.495669121948865600e-04,-3.111935105377149416e-04
1.697240640709173575e-04,1.424477976393877536e-04,-1.558359994672666815e-04
-3.686474934652994888e-04,1.725291709783857339e-04,2.618268995634062376e-04
4.340126487216214562e-04,1.918160461750651900e-04,-8.841229912370546663e-05
-2.512149120462163119e-04,-4.896520478254670198e-07,-1.936622221386427567e-04
2.135208368957938242e-04,2.003292478516881605e-04,-7.970486448196324931e-05
-7.147061291532530447e-04,2.569478182346081525e-04,2.248175124869295340e-04
-1.654112360580153038e-04,-2.521292991356741012e-04,-2.590990484629879568e-04
-2.396952485919055797e-04,2.008304399720130728e-04,-9.164428064268359585e-04
2.719143343869889090e-04,3.331146760833877561e-04,3.494378790018566757e-05
-2.201622358430870680e-04,-1.076716610918176205e-04,-3.564690818910284551e-04
3.567459881325991283e-04,-2.372184962750464461e-05,2.564864296976205812e-04
3.796392328204273542e-04,8.034723320854333245e-04,1.180314741334413896e-05
5.729011176076263378e-05,5.171896785710159306e-04,-2.232149004449794920e-04
-8.458278982571695241e-05,-3.037278686685750064e-04,1.682836625331762175e-04
1.235942083684917956e-04,-6.655145286649896859e-04,-2.910024229874078527e-04
3.919914707993255314e-04,4.742381446972439686e-04,-1.424707801349865959e-04
-4.669946104050750994e-05,-1.516660040647474885e-04,1.256498773668975879e-04
-4.494875109671325796e-04,5.059628715959459350e-05,3.483602786094271197e-04
-1.613428441538249610e-05,-5.739515498286021974e-04,8.696697428936302091e-05
9.854255532941192395e-05,3.456761516741460637e-04,1.973906687744018842e-04
2.230219861155289466e-05,4.623998383972523414e-04,1.002663999185994731e-07
8.246747851331734402e-05,4.690531813880003195e-05,-2.776803421760344528e-04
-3.601034168224989522e-04,6.625882121209585810e-05,-2.963445860437131582e-04
9.308536993053793777e-05,7.394931608031313382e-05,6.221950195400077158e-04
1.118300804505292459e-04,-2.892620781408343009e-05,-8.333894896604730025e-04
1.704060339977067574e-04,-7.733351385987553514e-05,1.340464363525292475e-04
-6.293607909397526358e-04,-7.116705284823180962e-04,-9.824919268984025366e-05
-5.400177469867042121e-05,-2.791196070637051133e-04,1.989526116624453997e-04
-2.213776314465872703e-04,-3.754030174411606140e-04,-3.254702404505462190e-05
3.713674601613169255e-04,-3.819794007319969121e-05,4.412757008645011797e-04
5.599874564423358222e-04,-8.507187544802250498e-05,3.308030857531072625e-04
-1.910758574898246119e-04,6.464742142063593195e-04,-2.731642699193797099e-04
8.618643342440321104e-05,2.215267184457112275e-04,4.179261269722552431e-04
-5.588282140626559441e-05,-7.011069848042879825e-04,-1.151985994245151957e-04
-3.076033017778903719e-04,-8.159795466375730584e-05,-6.827230365362670561e-04
1.273758595135986605e-04,-5.146696971980645278e-05,-1.867533661138450027e-04
-2.232379136094618370e-04,-2.020281312120838526e-04,9.737460865727357533e-06
6.899896320334030820e-05,-8.056436892154221041e-05,1.542447028849929349e-04
-2.269106649353751335e-04,-1.899337672870204182e-04,2.337321631743422608e-04
1.710840688166519251e-04,4.332765438819837379e-04,5.507570573546969727e-04
-3.478714062730028467e-04,4.113897467940618802e-04,-2.106453769532707623e-04
4.892941707898840068e-04,1.454011208780751267e-04,2.658485071531994340e-04
9.216382972375152958e-05,1.928931578748955275e-04,-6.636835776924149093e-05
3.134992415810334589e-04,3.558588359517453467e-04,5.576426344771449883e-04
-4.809273378528374881e-05,-2.307985522779399279e-05,-4.704135993623888594e-04
2.420367249430338305e-05,8.619735267045463601e-06,2.213204077786455962e-04
1.315524997247406768e-04,2.413465888239983180e-05,2.628605481175154738e-04
7.997606132966014920e-04,-4.133791599212459106e-04,-3.494843285649534056e-04
-2.819730153660629469e-04,1.456303161724732665e-04,5.227910359642462187e-04
2.323988755922049487e-04,-2.289518026730309578e-05,-1.397203773314661186e-04
-5.643232399395359429e-04,-6.721646305531484835e-04,-1.795461268385183584e-04
-2.001776905412614110e-04,-3.517071007374365527e-04,2.771205184297495248e-05
-3.941132449767597158e-04,8.097892636083164040e-05,4.660976710558002354e-04
8.375161119987883994e-05,-2.236694740640002096e-05,-2.828010474168887799e-04
-4.575635945991902206e-04,5.698113488831499460e-04,3.664825502381430727e-05
-3.797112357774716268e-04,2.131992173526909564e-04,-3.559430937238577800e-04
1.909884948326938988e-04,1.021887486459979012e-04,5.811703619250306157e-05
-1.743523915460459795e-04,3.084710429982810372e-04,-6.159064192385558124e-04
-1.278111964429779596e-04,1.387521477584661501e-04,1.240677693399436292e-05
6.790554308845794503e-04,6.677634284737129274e-04,-2.331966454426345281e-04
-1.813677058072655655e-04,-3.841598809250726539e-04,1.223002907633343772e-05
9.241486708508023608e-05,2.358197409138167289e-05,-2.914389455072232261e-04
-1.434082687817835120e-04,1.413060075462626924e-04,-5.902967682568084585e-04
3.358085655848048958e-04,1.982377535926780395e-04,6.286447187332922090e-04
1.533242026392793640e-04,-2.258796342633889178e-04,2.564540859577249684e-04
2.814150107942126663e-04,2.982543494310816931e-04,-4.314977578434131111e-04
3.189077637282727905e-04,-3.261689674676332396e-04,-8.726400102281000714e-05
-2.837339031563142103e-04,5.299959055178875034e-05,2.743812983351027980e-04
5.013210290924530492e-04,5.124299096292988177e-06,1.328185559941523104e-05
6.891789989379876473e-05,1.497951905194716299e-04,2.885370932312158847e-04
-5.427231785483052108e-04,1.770682669941251927e-04,-8.105108851594157253e-05
-8.063347604689967971e-05,4.894112269768465320e-04,-3.779201975298079267e-05
7.920168087850428321e-04,3.231799903023597456e-04,1.561955140604821747e-04
1.899258804990054076e-04,-8.422691361548497195e-05,9.998756990330029545e-05
-7.046897313261418045e-05,4.276714038983232260e-04,-1.625816954150975169e-04
9.589651254188624339e-06,2.964597739910883470e-06,3.332437874845431175e-04
1.611448517706171198e-04,1.549619980807000468e-04,1.921791324759053042e-04
-6.021670588681982220e-05,-2.153872890628671108e-04,-1.707821816781892764e-04
2.491760463237284776e-04,2.666551481943928745e-04,-2.637121991729761655e-04
3.916334581001663982e-05,4.234264252827649720e-04,1.678834993198457701e-04
2.906588111061122418e-04,1.049145735985535752e-04,4.856428834329730936e-04
-4.191599764996374470e-04,1.863545268479871236e-04,-5.894507956950234768e-04
3.554134132133519430e-04,-9.474291798701361587e-05,2.704403832781265143e-04
-4.689384515468177338e-05,-2.866804732212275978e-05,-6.412586247733506953e-04
-3.457073956125028286e-04,2.367446070450056480e-04,2.251077027517199602e-04
2.826504071370761813e-04,7.904571179927529629e-05,-1.691491975244953253e-04
1.460936451425224377e-04,1.318830559121425756e-04,9.903350785153259520e-05
6.357410292644190373e-05,1.055697604641431730e-05,7.206733374528137559e-04
5.579102206240717492e-04,-4.202008491722665972e-05,-5.019750157274438605e-04
-1.832531947172452052e-04,-8.720585720610506478e-05,6.705144047335125307e-05
1.024943158512279286e-04,-1.100088213676892168e-04,-5.914095631298515353e-05
-2.522879131758685864e-05,-3.532993304234005615e-04,2.457195095534113840e-04
-4.094834037480889942e-05,-2.899085503853618688e-04,-1.623126997739571644e-04
4.317482470988518784e-04,-9.602986468524285274e-05,-2.477787339664896211e-04
-7.524553227382872040e-05,2.489392828616341226e-04,6.536470293078440051e-05
2.764929733000272521e-04,-6.704401348267133634e-05,-5.544797382879927813e-04
2.570206805452022254e-04,-3.742470582680056785e-04,-8.128198351442947550e-04
-1.353953929668519167e-04,2.368036873487171440e-04,-1.237411578066861416e-04
-2.265252941665903553e-04,4.476490201106339117e-04,-5.234039805617111225e-04
1.275538004141400002e-04,2.877466526822656211e-04,6.111720282498982930e-04
-4.495383427697495190e-04,4.234389644317509255e-04,2.946851710818219287e-04
-1.377661432735644215e-04,-3.606099505404331054e-06,4.108834345410553360e-04
-2.641977959409343418e-04,-3.879291117602657745e-04,1.984710588020817791e-04
-3.036388580995150644e-04,-4.512987821340329830e-04,-2.322086443052312991e-06
-8.703261479528183334e-04,2.254947313433380417e-04,5.336885065286671448e-04
2.275962143219953664e-04,-6.032575122694774352e-04,-7.958934995013289618e-04
-2.273117599942070586e-04,-1.858163010139181890e-04,4.740733013496871602e-04
1.330177350365592645e-04,-9.343561765957941642e-06,-4.686549152202941796e-04
9.447306372907771123e-06,1.404352712925903413e-04,2.870748606216799422e-04
-2.941203678240036055e-04,1.061257879712460776e-04,-3.820827714148804656e-05
5.583237392758229594e-04,-6.132871419627739049e-04,-3.031200743354323796e-04
-2.583322807537776541e-04,4.467427345561047033e-05,1.947711935843448932e-04
-4.724463905951196258e-04,2.559044846636435232e-04,4.812552256588550318e-04
-3.444910138522637292e-04,-3.871878159855546156e-04,-7.313553053996444233e-04
1.361016362017451926e-04,-4.158834405082208587e-04,-8.140389778851245749e-05
5.257509500141889248e-05,3.184868214959591347e-04,7.997996415293633684e-05
-1.221057590127443800e-05,-6.102664667720107336e-04,-2.289598662143997024e-04
2.698152282173840819e-04,1.975146376659630621e-04,-3.431045943784052183e-04
-4.895146073446522477e-04,6.354041287671142167e-05,4.707803049615573654e-05
8.973480759181981211e-05,-3.347418248536736989e-04,2.719458278543899652e-04
8.746462673279259100e-05,-4.402125208689086931e-05,5.494235347916689039e-04
1.907587719227300197e-04,1.120222729108206301e-04,5.532781111722614303e-04
1.494870396385680766e-04,-6.529654745921974169e-05,-1.164503586682532526e-03
3.612898045460500511e-04,-8.320051169018925991e-05,2.938458712720331883e-04
-3.758445877985809830e-04,3.426941363887044166e-04,-5.360242315975332142e-04
4.234895493735393738e-04,-3.926386321457626602e-04,5.460727600507951814e-04
-3.777131461904484800e-05,2.608069734237638865e-04,-2.233860324558015610e-04
-3.314068583131006248e-04,6.324005353952381024e-04,2.013374103906447803e-04
-6.264659473136269155e-05,-4.444890229655399576e-04,3.627513006268903218e-04
-1.707132424814831789e-04,-1.387084534913862624e-04,-3.148029759397591681e-04
1.532400029129031441e-04,3.056715616596922605e-04,-2.239569381701470192e-04
-2.203199958979398961e-04,-1.384255558635600865e-04,-3.696177431850821956e-04
-3.945603210445718578e-04,3.143662598634088456e-04,-3.972025113726583936e-04
-5.017383443497505906e-04,-3.084104460502319845e-05,3.424819107497700907e-04
-4.204069704505766417e-05,4.634401048728043236e-05,-1.025971388341000802e-04
-7.887866050928539485e-05,-1.849073307377026841e-04,-7.598736658028977395e-06
3.640132516683087507e-04,-1.735399801827939594e-04,-4.387246003755776317e-04
1.143546182652349305e-04,-1.840245146109584457e-04,-3.518673831052390581e-04
1.348799749017482179e-04,-9.691281190096938457e-05,3.862682296643195129e-04
3.039750321424266894e-04,1.464052634820375441e-04,-6.493099303021097478e-05
-1.444235553058333490e-04,-1.072975320605325131e-04,9.580888466707428532e-05
-9.094745524329514349e-06,1.829301545019928360e-04,5.315305168576024274e-05
4.465434322331841778e-04,-1.389671544985226852e-04,4.239388180784511243e-04
8.862957212776679131e-06,-1.921176650404691772e-04,-3.734655949611709769e-05
2.747677262063537664e-05,-5.333763644244249059e-06,2.434229056807756572e-04
5.171096679250395756e-04,-1.302627412376705478e-04,-1.353653270341649421e-04
-6.696047735425506465e-05,-3.958267209397687680e-04,4.248993541309063608e-04
-4.447025428163903189e-05,5.044085410411538540e-04,1.849648474062898598e-04
1.406907226618611889e-04,-2.891268995152060915e-04,2.202481360705472817e-04
4.451309810268376348e-04,6.573865129140619556e-04,-2.735448699321544382e-04
3.231677942472462777e-04,1.002294526769528099e-03,5.165604244057546814e-04
-3.230154705849016769e-04,-2.930310009080819731e-05,5.618208687167803531e-04
-5.764340647011717111e-05,1.371098564169125165e-04,2.674313061622159084e-04
1.323505366066062277e-04,-1.278798731894803975e-04,-3.356886041029029030e-04
8.151867112194130592e-05,-2.897996146293417115e-06,9.199100627256656649e-05
-4.725985358972295504e-04,2.094447096769762654e-04,-1.530889488730537878e-04
-1.507806713766816421e-04,-2.327851801660033200e-04,4.402773318250200298e-04
-5.616013872441676460e-05,-6.391532869274777059e-04,4.351021446516450822e-04
-8.613867559974224149e-05,-2.063976183652548708e-04,-1.664262757821592437e-04
6.855544344011954105e-05,-1.743239482829622906e-04,2.163646466782740308e-04
2.236783274484311515e-05,-2.973165128115053815e-05,-5.631323279211783179e-05
1.129509904802812362e-05,2.032708887965759665e-04,-5.689920016865756191e-04
1.797115895112627907e-04,-4.021711766638595893e-04,2.187562484704629723e-04
-5.261690395904204025e-04,-3.232901572341889966e-04,5.719157002355327002e-05
1.235771614266269614e-04,-1.368727564404318721e-04,-1.579566911347096605e-04
-2.131808853836400627e-04,-2.947301062470801362e-04,-1.732971869086278346e-04
8.448341228752215357e-05,-2.157879303750769192e-04,3.112753594780760672e-04
-7.761749455254085377e-04,3.566871421759980343e-04,5.629074422760372686e-04
-1.340504751244310966e-04,3.347869179569360528e-04,1.016133571933054420e-04
-3.251897475707527039e-05,8.741917693700830972e-05,-1.180635854187427227e-05
-1.253261864233749323e-04,-2.342929869200936213e-04,1.289569413961774458e-05
1.761856216476305427e-04,-5.837717603778521183e-04,3.886950014818713116e-04
-1.038455901584798034e-04,4.804177601896278990e-04,1.986374398154005865e-04
-1.883583493762050649e-04,1.464318042652270973e-04,-2.703736892292283992e-04
3.589892425638515879e-04,-5.448174347561307931e-04,7.700083812511783910e-05
1.633813497926958256e-04,-1.907176891537484419e-04,1.295207178431971768e-04
1.154876943291765926e-04,-4.816525475448253462e-05,1.309941439622627920e-04
-4.683300834183715317e-04,-1.860943372300753100e-04,-3.054395052353146183e-05
-2.340508467628686683e-04,-1.210512076623527036e-04,2.483815586306494893e-04
2.249242340034550034e-04,3.307532620570168024e-04,1.446359339711055598e-04
-8.868737056820826653e-05,7.612546202773409374e-04,5.169376110803026525e-04
-3.004302176752631244e-05,3.892745998100589347e-04,7.231467862155918247e-06
1.992261363868155983e-04,-4.177522701737034177e-04,2.113404654592877503e-04
-4.766595431626388809e-04,8.916124489692954036e-05,-2.066480577362635282e-04
-4.139157562405099350e-04,5.091041294073105202e-04,-1.852685688797004967e-04
-1.603166452310740564e-04,6.358491381253783938e-04,-4.619882517086330311e-04
3.222953492349760652e-04,-4.236447962386959468e-04,2.308523933873636775e-04
-8.515177965495947156e-04,-8.116760647218537435e-04,-2.664349751702866612e-04
-6.495968092290447821e-04,-2.173173601167342501e-04,-7.678782942010258146e-05
2.825961689614033294e-04,-4.051940280260952218e-04,-8.215761748011927491e-05
-4.378311305424083884e-04,4.630890429721907717e-04,2.643576655960243175e-04
-3.764522811133114415e-04,9.524492586913110360e-05,-1.163567958747270927e-04
-2.507963106449838191e-04,-4.352957885546088028e-04,2.953522981429296430e-04
5.364319191917075319e-04,-1.939072031620028716e-04,1.536661847101002446e-04
4.622499424108981515e-04,-2.001803105039662864e-04,-1.284970464888906584e-04
9.288945779864175303e-05,1.451113302804650463e-04,6.551702597077021519e-05
4.348504015903588123e-05,-3.215713492655725061e-04,-2.478292459279783958e-05
8.159921145863936917e-07,3.527391319180684542e-04,3.385650831448984454e-04
1.473300694112095958e-04,-6.174059465336277511e-04,-3.029801570173145991e-05
-3.844595522000080227e-04,-2.076994158634734230e-04,-9.562716222600647030e-05
-2.742602632981353222e-04,-2.976882383221274948e-04,6.659492762602221535e-04
-4.874292680072204184e-04,-4.840661232936855604e-05,-4.224339209908390931e-04
-5.408549701839680032e-04,3.583705126682159843e-04,-3.713937560221128873e-04
-2.656791592261336906e-04,-8.131581344251946858e-05,2.980704458903270996e-04
1.025058241870001780e-04,-8.699608529879490171e-05,2.414389133245607101e-05
-2.570641744214543752e-04,8.228350195715234165e-05,-2.318498871733270530e-04
3.815234045559091441e-05,2.975900146421921644e-04,-4.448269452546442515e-04
-1.296365651231870194e-04,-9.226984122651801725e-05,8.217801238502285034e-04
-3.871295164757209686e-04,6.121359934674216975e-04,1.133616141375616749e-04
-6.870595908736033645e-04,5.060614407427000729e-04,4.534997949005837811e-04
-1.239935970278953462e-05,6.234235387416555731e-04,-1.381203687915388779e-04
2.868076004024350516e-04,-6.004298540698767587e-04,-1.566273297293249830e-04
1.006885208305020944e-04,3.967734683293480170e-04,-8.896061540331377327e-05
2.767387220762409212e-05,9.134159395607343039e-05,-1.535310507859060432e-04
3.548448197237431953e-04,-1.044544545854239094e-04,-8.913324609100094827e-04
-8.254495937518328743e-05,-3.965054919916503949e-04,-2.300099057067533427e-04
1.555258886682359218e-04,7.095986718749330542e-05,1.489537815376831842e-04
3.414058341010738832e-04,-2.472540705659632032e-04,-2.192101610951854873e-04
-1.165423122733759908e-04,1.631562970308897875e-04,-2.051571529239717452e-04
1.564453063227088541e-05,6.256979878550612438e-04,-4.198255349268003103e-04
-3.908459548102258003e-04,3.473053365925230147e-04,-1.199368528289383674e-04
1.317979919472269258e-04,3.555125526108473752e-04,5.616684434262344009e-04
1.877942893920561880e-04,-3.092701264660371852e-04,-5.640114228865672534e-05
4.148689688113898219e-04,-2.415913020421531614e-05,-1.847960995203684110e-04
-5.619726254360062003e-05,-3.971025925380213960e-04,4.728690268540749011e-04
-4.458366021189973127e-04,-9.386967471548700499e-05,3.704106641906422634e-04
-2.803070613076074738e-05,2.965422715687992487e-04,-1.368209083077923506e-04
2.574801465816197615e-04,-5.155534626210718507e-04,2.056983505094946737e-04
3.675207236966371543e-04,1.510621978832590525e-04,2.778429086606533805e-04
-3.652793345345218667e-04,6.986750616536161872e-04,6.653860487621713997e-05
1.460531046448853871e-04,-2.426395273282973535e-04,-4.766505030138609906e-04
2.637541243776708646e-04,2.664239714206376218e-04,-2.431059912929183268e-04
6.153832597455152981e-04,3.383593311683096710e-04,-3.429814845529477484e-04
-7.431119066771295009e-04,1.499990390725011193e-04,-3.342786569673099535e-04
4.299402248637202210e-04,2.266781940073450067e-04,8.195387729613034698e-05
1.859250419896368172e-04,8.076458380374150264e-05,-2.425403646347517534e-05
1.036627558446542787e-04,-3.180431518678048484e-04,-5.206585935587290919e-04
-2.234038306634308641e-04,5.498404519199419057e-04,-3.041006889766832873e-04
2.821121120734120728e-04,2.262995342666734736e-04,3.360258179739979926e-04
-1.619313098962876188e-04,4.559765360681462799e-04,-1.395525004204830818e-04
8.936350368735647670e-05,8.363847244948531353e-06,3.673349040097966710e-05
2.575442977907923094e-04,1.360788997034560581e-04,2.779825937662584062e-04
-1.870178482239751505e-04,6.014576204454713786e-04,5.890716061917659310e-05
4.100442307089281237e-04,-1.523407932937670428e-04,5.192319098143947513e-05
-1.066349787052645596e-04,-1.797925419402599098e-04,3.911869506982699096e-04
-2.749803845297366382e-04,5.365141082975974319e-05,9.447253081052614835e-05
-1.681353559938191287e-05,2.646260454978614026e-04,2.688128849811704320e-04
-7.688628852156478930e-04,1.797569413700308549e-04,-1.220803815144135365e-04
-2.168269064816671140e-04,-3.676155013884335076e-05,3.536565136797803423e-04
6.745129746694484988e-04,4.902074442336424838e-04,2.547620936850552220e-04
-3.329374389524525661e-04,4.596185951795423591e-05,3.868781286741291772e-05
1.804030363668344169e-04,-9.349116467554070364e-05,4.172462398704325135e-04
5.798917703754531217e-04,-1.373919987280693481e-04,-4.365510931307307494e-04
2.275327232391113571e-04,5.031536786818737741e-05,-2.962294086179626668e-04
-2.310413498245901390e-04,-3.996965319664099988e-04,-4.157918776450682643e-04
2.049738805888010192e-04,2.822965176939525077e-04,1.970317433749608355e-04
-6.175259384833173791e-04,3.542756353647560658e-04,7.234916948323920512e-05
-1.682379587568534856e-04,-3.521822896531083395e-04,-5.331406590304752467e-04
2.052798242241313332e-05,3.476788017364947666e-04,-4.859296096604970696e-04
1.362682532307059801e-04,1.549416750210521492e-04,2.559069127115141951e-04
-6.861684025117055193e-04,2.732341906206068303e-04,2.886976934549446484e-04
3.393377720081201311e-04,-3.238977951763608661e-04,2.540712855792374232e-04
-5.511315941828283252e-04,1.202865057669595157e-04,3.274447437772769957e-04
5.726211784782894850e-04,-7.143466796432903576e-04,-3.243592111186075432e-04
2.247963933765100301e-04,-4.976469061708470440e-04,-3.430938966381271793e-04
-1.705437448125882553e-06,-5.817176287069295492e-04,-4.455421780316415640e-04
-4.859747170673569958e-05,-3.259194072536786236e-04,1.251309279302174361e-04
-4.787465480652511958e-05,1.631196781932381216e-04,2.896441788725174181e-04
-1.558601106695286782e-04,-4.789340715368621060e-05,-1.472382203705699930e-04
2.520015444009773842e-04,-2.840723672940680578e-04,-2.026042783739780031e-04
2.535786303308041711e-04,2.747418504141199876e-04,-2.323851281797060209e-06
8.237601248750519634e-05,4.160682477133739168e-04,-5.886022078710764039e-05
1.829548019551108630e-04,8.002416878969765071e-05,1.201533697747196870e-04
3.053496318928167240e-04,-4.014366918189083908e-04,6.644382522055484075e-05
-2.177354066354384238e-05,-3.590221468279188206e-04,8.918508104403507011e-05
-1.098023805863047029e-04,-2.492240026014959885e-04,-9.177548249714565269e-05
1.963210097639607509e-04,-2.943185156453643082e-04,6.236747021302898415e-04
-2.506269231402874606e-04,3.344246643974984386e-04,-8.298931047985372842e-05
4.402373432838563175e-04,-1.203412851701767168e-04,7.586115322070660335e-04
-2.769398364547952652e-04,2.434777978259379647e-04,-2.578431747248193071e-04
-7.721938137389036097e-05,-5.386309214474899361e-04,2.555161761478133065e-04
-9.071815467394720150e-05,3.090474061878771268e-04,-4.099276474009045127e-04
2.627152801708777709e-04,-3.125387171756447801e-04,-5.136527031581111314e-04
-2.417861691356603846e-04,5.351885437622522928e-05,3.518228241891816995e-04
-1.875771105992420009e-04,-2.869551970727863459e-04,4.223264375435447390e-04
-7.636423822282260171e-05,6.837853648636264131e-04,1.056068211542877467e-04
-1.665775218984743962e-05,1.150836629367412648e-04,-5.668255353561390126e-05
-5.546399985923791291e-06,1.660878382023811312e-04,-2.073217272726490888e-04
1.230033110935586026e-04,6.227993881476149044e-05,-9.067212392401459312e-05
-1.152984021888574332e-05,-1.485833146734568712e-04,2.825657518369442396e-04
-4.919148813800079114e-04,4.647786071332733445e-04,-4.881626521643086061e-04
3.071858666934215330e-04,3.085433716284413349e-04,3.104442034074462255e-05
4.806844466330446159e-04,2.177221655700621909e-04,-1.383571693694746120e-04
1.827590058464646729e-04,-2.815365949515456941e-04,2.310177374058634974e-05
4.973375392705485032e-04,-5.018603923147203381e-04,-2.039969742891162524e-04
-2.733428568547049053e-04,-7.995980009369545042e-05,1.377247180893955477e-04
6.641039392295650882e-04,5.766243589701831418e-05,5.173295505152433835e-04
5.068831238503590780e-04,-5.022847414700211822e-05,-2.036415840608470741e-05
-5.440121429756630692e-04,-1.448659027873756616e-04,-3.313749145331960824e-04
-1.317416403664014234e-04,-4.461095534488838704e-04,-2.989991563235995064e-04
2.753546166822191450e-05,4.085060795564537050e-04,5.225855011994018579e-04
3.767194431843512605e-05,1.929104724840791996e-04,-3.230333042682716790e-04
3.006256491585798662e-04,-3.242578401217280945e-04,3.956453239874300077e-04
4.500180844651869606e-04,-5.026621822254019427e-04,2.434638670676233716e-04
1.329260623514006074e-04,6.510069191156764247e-05,-2.876997086311911997e-04
2.251161457773273136e-05,-5.587036381833056334e-05,3.277490070061041478e-04
1.381769237887689504e-04,-5.742494002806063194e-05,4.721999147189665565e-04
5.748035431329158451e-04,-1.138447367935841278e-04,2.609778951704788317e-04
-2.665067501420611651e-04,-3.272154236331338930e-04,1.967853948505737533e-04
5.659497334224179434e-05,1.703035548381161106e-04,1.092844120234658616e-04
-2.652140708052519598e-04,5.086919737879346865e-05,3.895255929163248649e-04
-7.110395208313702265e-04,-1.365563875487955166e-04,-3.481945978343933931e-04
-3.881961514541977564e-04,-2.440661121809580762e-04,-3.722224643885041744e-04
-3.140026798049406587e-04,1.373916540114639086e-05,-3.087672974838631657e-04
4.352785460800656631e-05,-2.096143025075664979e-04,-1.100984201462366376e-04
-9.553548353921085450e-05,-6.849171306354797848e-05,-5.044968668087109658e-04
9.976866285928594473e-05,1.222600620760505563e-04,2.110101395722679149e-04
-3.281786872964232121e-04,5.611405675488538450e-04,2.737627289725521208e-04
-5.541999834195479547e-04,-7.963598371978867097e-04,-1.349298599548652609e-04
-5.852856619828310236e-04,4.727264159279720500e-04,-3.320686788349508497e-04
-3.158628434392189450e-04,-1.973692523319893965e-04,-2.499163407494848187e-04
8.471802132378933022e-05,3.316613608970762970e-04,-2.792324411957633262e-04
1.665252595110791253e-04,-1.303922849133591080e-04,3.977691782357802670e-04
1.865751750620705409e-05,4.246585966749680729e-04,-5.750387222846094069e-05
3.030655475946992259e-04,7.961531816765441620e-05,6.112923883759191403e-04
3.472783895795205711e-04,-8.717029148445673667e-05,3.153543703226861208e-05
-9.813877914992654491e-05,-3.220044928421252669e-04,-2.887448216515297044e-04
-1.115675243468484360e-04,8.926324866471911602e-04,4.749237303907968681e-04
-3.544989633966152975e-05,2.886386713988909345e-04,-3.556367384568175538e-04
1.224319471333672530e-04,-1.007624068156290025e-06,-3.498453901088999316e-04
3.034702827826501266e-04,-6.100103806139694010e-04,7.496646963285457787e-05
2.666331777726644412e-05,-6.535994945981663114e-05,1.419344519289058107e-04
-1.680524551892018928e-04,2.284181815415433075e-04,4.754712633414522570e-04
-4.451117607553133873e-04,-3.464530700121802825e-04,5.500436123153013191e-05
1.867915173777996273e-04,1.973847254049241099e-04,-1.947754585396154620e-04
-8.041114310230924476e-06,2.902943440304277581e-04,8.846076259112923147e-05
2.549833845191585603e-04,-3.457860674627596075e-04,1.455067925792995535e-04
-3.218959460340663182e-05,-1.765142718775527901e-04,2.578402643069014634e-04
1.624778125865210840e-04,-5.410898652146214070e-05,-6.008756435953932972e-04
-5.482321297604950518e-04,5.709612668365857428e-04,-1.940744275135333080e-04
-1.266786270159033054e-04,3.352718482948653374e-04,-7.021494243401509374e-05
4.448949415457539467e-04,-3.975652614172052175e-04,-6.440595553573632811e-04
-1.734248069973186996e-04,2.472435876769222261e-04,3.719615303081257800e-04
-3.240122716685278300e-04,1.134857147051033290e-04,-7.162938293671765604e-05
-2.191110317149828229e-04,8.528011801924944256e-04,5.520525913720089042e-04
6.357642279796189952e-05,3.450990295321352793e-04,-7.549445889254052290e-05
-5.583634456700476128e-04,-1.710585222616935012e-04,-6.242609415633568399e-05
3.941208119391729331e-04,1.103696264630474121e-04,1.885736305314020863e-04
1.935973777886800559e-04,3.765718256697238591e-04,9.855489507007174951e-05
-1.337444271607678972e-04,5.004390702051199672e-05,-4.849127292605335204e-04
1.403015636525509408e-04,-6.546573967356160428e-04,-3.324632736367054084e-05
1.911308739763644727e-04,2.784382551137899560e-05,6.859034838847935306e-05
2.245820272395088787e-04,3.810993787651546349e-04,2.188795555466568573e-04
-1.898187333402200289e-05,6.438454579801829788e-05,-6.248115574120701333e-04
-3.594538800810976139e-05,-8.815346934264238184e-04,1.000088902045106603e-04
-2.490828610421763319e-04,-6.080115132325239610e-04,2.082311467678198678e-04
3.387333287359409997e-04,-1.377439499167363473e-04,-3.747694104579015568e-04
5.511962787654525612e-04,-2.293925017411575209e-04,-2.312909666162940629e-05
-6.385593516864519021e-04,-7.769002778841411724e-05,-1.234496932326750978e-04
-1.801647086847291373e-04,1.346190711726767133e-04,-8.486055363645236480e-04
-2.102310603257741750e-04,-4.249039541973907729e-04,-4.804988922530069995e-05
1.762972947127592791e-04,-2.781847820988988867e-04,-1.275449859823320187e-04
2.735794749779411244e-04,2.170682795120017629e-04,-1.061038804962901471e-04
-2.504536741326398295e-04,3.067251469726926086e-06,1.368302918206324402e-04
4.544321227032822701e-04,-3.355730594891900842e-05,5.260591056626803190e-05
-6.250758732902893678e-04,-3.559757443918688574e-04,-3.086819597654627914e-04
-4.398555912496614358e-04,-9.016058124011914966e-05,-1.506878633478367325e-04
9.024163454607867819e-05,1.002872724700050650e-04,-3.412553039861300486e-04
6.120670599158010462e-04,-2.385498108640104131e-04,2.625047279541708393e-04
-2.905673158928708194e-04,2.500135012577648893e-04,-2.183076540955299050e-04
1.746732056412643246e-04,9.815802251178675072e-05,2.263388833654449747e-04
3.430323661951486451e-04,-2.684087543238509314e-06,5.086526204391685286e-04
3.644201092552397402e-04,4.184145767513399740e-04,-4.799522976150749203e-05
2.846014754539900296e-04,-2.444301974573384194e-04,9.141964038565392886e-06
1.058401590033474925e-04,-6.348251187017471835e-05,-8.127449925442235780e-04
2.375495518853311210e-04,3.102742579622341248e-04,-1.057107778845289017e-04
-1.992414148443553385e-05,3.167759022196747721e-04,5.936868067441941881e-04
-1.122670228126176271e-04,-3.619526973603769842e-04,-7.783137439747690929e-05
5.611255854037117173e-04,-1.392622348760797358e-04,1.044823533900688425e-04
5.208963979904602035e-05,-1.355285872336615938e-04,3.953005287840261279e-04
1.029205873749725644e-04,-1.544708308332352214e-04,4.987711591576642197e-04
2.662235249670535133e-05,6.614145023537676676e-04,-1.485497909788666235e-04
-5.808138717287660057e-04,-4.407880691539046709e-04,2.278133980809039227e-05
-3.015935663026787591e-05,-1.687689421645837849e-04,4.989106529216957462e-04
4.907588653505454450e-04,2.407868559815890441e-04,9.615082633434120967e-05
-4.333916129773586349e-04,1.514272083092942411e-05,1.077420724314367566e-04
-2.655494934049735232e-04,-3.241011605381464490e-04,1.965664382779230563e-04
2.184585223321174334e-04,-3.708901419414556270e-04,5.740237237614350779e-05
5.894834427704686393e-04,-2.473779219136854136e-05,-1.871246823740205082e-04
2.105645044026377660e-04,-4.772689150968116524e-05,-1.140898309886404595e-04
-1.230301379358398261e-04,-3.524886188992720857e-04,-2.798383934655760655e-04
-5.433113541577016354e-04,5.781222643468384375e-05,-1.970980990660106124e-05
-1.906654828770896776e-04,5.078132529735871446e-04,1.966257399479708924e-04
-3.098060394524757726e-04,-1.558651936555518396e-04,-2.896409138796365965e-04
1.681697234429062435e-04,8.852090919304880985e-05,1.951822282617347252e-04
2.787689650717645662e-04,2.586869328072445833e-04,-2.131892880687509496e-04
-3.816255982728208982e-04,1.818464787694786997e-04,3.903179783440913924e-04
-4.291195600844000782e-04,6.752186529868848350e-06,5.225425477643215439e-05
-5.078839597910656239e-04,-7.492269301453805029e-04,-6.167820491940996042e-05
1.006556321947260304e-04,5.477222237471925928e-04,-3.661925519455546838e-04
-1.187940116008480640e-04,5.363785007071925114e-04,3.251043837712089810e-04
-1.567495609619991834e-07,-1.174130761510568506e-04,7.419904552434763685e-05
1.298332873563823840e-04,1.070886718586069452e-04,-7.068967092860986481e-04
-1.635715440163947271e-04,3.058992203862410963e-04,1.146206817817570510e-04
8.894070563295762208e-05,-4.647162710690168835e-05,1.856366624137879753e-04
2.375778095058137665e-05,-2.751631175577822289e-04,-4.655694306908615427e-04
1.421426814797184937e-05,2.048597369373158020e-04,-5.454106232703906317e-05
1.022970662659595300e-04,5.096973906810407231e-04,2.285482718070804995e-04
1.750260158117668003e-04,-3.257749080989222053e-04,1.932690904104083425e-05
-2.862015183324228607e-04,-5.308051169206339523e-04,2.954410964835668153e-04
-2.966372751919657720e-04,-2.685159416124685591e-05,1.565767847254354700e-04
-2.322288078353466987e-04,1.077025760918824839e-04,2.012565298421667762e-04
5.349980226544160658e-04,-4.694902064388738411e-05,3.162079734380794280e-04
-4.661061774386096894e-04,2.381596723126474971e-04,5.394481628420407307e-04
7.722941819610315041e-04,6.094446748137226973e-04,3.144133191874519547e-04
-1.975589208603517524e-04,-4.048692619509639879e-04,-5.573139748487764998e-04
5.895164112537948923e-05,6.176837205515355944e-04,-5.486520283417206817e-06
3.263780682888108562e-04,-4.880852670615775236e-04,-2.861654212719706041e-04
2.272727338326115544e-04,-4.563781867843831673e-04,-6.244684117232761171e-05
-2.361302437065396264e-04,6.250533080516763786e-04,-5.978854349479673308e-04
-1.790173386942796508e-05,2.508424796456195901e-04,9.299311780523468983e-04
-9.084287540257103837e-05,-9.198178906234999095e-05,2.424238596185831159e-05
-3.129203072238724332e-04,4.282140945895863366e-06,-1.896208713189499512e-04
2.041881305061725503e-04,4.469556990730322288e-04,4.191903210691071222e-04
1.399649059099150529e-04,-3.617589420034792369e-04,2.745263576512214985e-04
5.084777214285087464e-04,4.869413849163455542e-04,5.432882155201632324e-05
-4.049031220332947878e-04,2.141362218099155185e-05,6.628668741514464518e-04
8.384519790697486001e-05,-1.271996593485605722e-04,-1.751519549724066987e-04
7.746753948836524142e-06,-5.499912652055677928e-04,9.866056664066743273e-05
4.127386367489398211e-04,1.421630973797201466e-04,3.373182241050700844e-04
-2.364444299400053791e-05,-5.264030714960856849e-04,-6.701747899504116677e-05
1.459579261690350453e-04,-3.005275138491373711e-04,-7.431604276861250200e-05
1.069846127826969715e-04,-1.262510606314029690e-04,3.324491874928854900e-04
1.629339352324706567e-04,-7.151782979772239660e-04,-6.098398354682225313e-04
9.400361283668791888e-05,-2.385798679711395359e-04,6.066323498504545570e-04
7.496581419142241305e-04,1.569844352465829020e-04,-1.810040244879303911e-04
-7.693975096917944663e-06,2.479192598149436303e-04,4.350539079309179180e-04
-6.718913472130349806e-06,1.764103459300111175e-04,-1.423530622195885145e-04
-2.382121282926161026e-04,-7.345669505983399260e-04,-3.470364457571539015e-04
-7.523050195973801299e-05,6.163954605235741867e-04,-4.294558087537485693e-04
4.771432771294614370e-04,2.102280696061945269e-04,2.079628018416141420e-04
-5.457108188241844866e-04,-2.490518925232436506e-04,-9.402706348173282564e-04
2.927605766028959456e-04,-1.367922099334925470e-04,5.896462039462620176e-05
5.373458928346232363e-04,1.241736699520959615e-04,-9.563822818348407899e-05
-1.514995069476972615e-04,2.563905228035581862e-05,1.081912938823580188e-04
-5.239023561911939708e-04,3.705984919623965253e-04,1.243813015469699169e-04
-9.873090187559499617e-05,-2.272030792604720054e-04,-3.672488422748565007e-04
1.280506085964200542e-04,-2.145091944518925649e-04,3.059663346414822401e-04
1.906069627087305892e-04,-1.123374115480789328e-04,-2.908647953323033244e-04
-1.915332666373364750e-04,4.451983254517331650e-05,-5.929048012871798240e-05
1.240155074497644437e-04,1.865265094269751413e-04,1.308047105064222141e-04
-1.471015982268320714e-04,5.204483345209051052e-05,-4.153078208211579097e-04
5.443660206600279812e-05,-2.048103514025374522e-04,-1.405709259895818240e-04
8.802379067632590650e-05,6.244328715880638351e-04,-2.214267212074540723e-04
-4.538921748498374190e-04,1.526024689711520600e-04,2.027909616890077806e-04
-4.437239220922429813e-04,5.090191951806346616e-04,-4.325665718182471089e-04
2.991729833029768584e-04,-1.023809366773833536e-04,-7.279378032823122290e-05
4.306509086912476596e-04,1.022250157434131154e-04,2.589608347674751698e-04
3.328490747780208769e-04,-4.293379849492152728e-06,4.063605752760236008e-05
-2.013350544609561401e-04,4.826691298976441239e-05,-3.303676175714913179e-04
-4.280195701044047749e-05,3.452949537359444455e-04,4.349118204383566944e-04
3.876467842324423404e-04,7.446573862405691732e-04,-5.009279146066184917e-04
-3.546685261504526607e-05,-2.539359250422073782e-05,-5.458284871585417433e-04
3.763487609292728123e-06,3.197068986772394548e-04,-2.570761114525352059e-04
-2.880402076252391993e-04,3.625663047644698297e-04,-5.116427546564293117e-05
-4.889727748617666829e-07,-3.118177285305558013e-04,-2.099347330447245573e-04
-4.045715768468982100e-04,-3.722914084821483515e-04,3.452511835675692721e-04
-4.132648502404018395e-04,6.095580612830245066e-04,1.719538351365510582e-05
-1.948664396696980024e-04,2.950600814224391415e-04,-1.048402196974273842e-04
-2.066017751171477900e-04,2.778134526584998942e-04,5.083558171732052364e-04
-3.454013265536339688e-05,-8.674626846459702846e-05,5.006946196116516059e-05
1.136816318488954685e-04,1.277634329155963051e-04,6.016342873233461929e-04
-3.518645026062221215e-04,7.187603337543410414e-04,-3.735519507273213748e-04
-2.508511893149606409e-04,4.755138539005885831e-04,-1.614764099397710093e-04
2.691088045750979850e-05,-2.345860492688154881e-04,-9.520961481046195376e-04
8.228415028409377706e-04,4.473245868927587044e-04,-7.862137775006967347e-05
1.302293198286008619e-05,4.048964170738690604e-04,4.582567160391113161e-05
2.329478133886366681e-04,5.680862439979600289e-05,-1.739397941752910304e-04
-2.282982247176808125e-05,3.365695818024487702e-04,-3.699505537312218115e-04
1.389028636259989136e-04,4.705827591178365042e-04,-4.334053626098330038e-05
-1.618195289590322052e-04,9.901154493126903145e-05,2.113354586115540285e-04
2.613631177272913737e-04,-6.228380988009179565e-05,4.864129631301698873e-04
-2.081088817555658407e-04,3.891123291997542594e-04,-1.766616568386168847e-04
-1.218692661142398376e-04,-5.948593043986393153e-04,1.603213553765917053e-04
5.291648670738241349e-04,-9.840891678822026090e-05,3.662879218129716833e-04
-4.286524173372188891e-04,-5.887123654214673069e-04,-4.533815738949896782e-04
-7.994527875473140947e-05,3.545848938468070823e-04,-2.625940441106028048e-05
-6.802093675165369301e-05,8.288600577360795646e-05,-2.728615692963513276e-04
3.585372975216983313e-04,-4.482715283142772863e-04,-1.523205661910893253e-04
1.363851390839557404e-04,2.015364421694243013e-04,2.015195960941914969e-04
7.927761665671223187e-05,-3.330357936372183611e-05,-7.383866490872703058e-06
6.039341240657243636e-04,2.931947254441094456e-05,4.724670969138108266e-05
1.803508648323074045e-04,5.999472029612524940e-04,-5.019238302850045257e-04
1.893299648369650321e-04,-2.667777575890168534e-04,5.795083810271089075e-04
-6.847829897205230838e-04,-3.222837972761742023e-04,2.612290086267683828e-04
-4.772769729252369458e-05,8.927810578411521586e-04,-3.633889224865508765e-04
1.615140172680382894e-04,2.403820461253763897e-04,-5.068097377929818657e-04
-5.948865413798705356e-05,3.101810747263015664e-04,1.589826377032485820e-04
2.338406607125352989e-04,2.679887532612919743e-04,-1.592969345212519013e-04
2.053992997462292852e-05,1.472232129179039395e-04,4.808051483462338584e-05
2.136025417699599139e-04,1.331369577199036612e-04,1.098736716970571026e-04
2.137355523421327781e-04,-2.819247469565527831e-05,-7.063217656196704340e-05
-3.439694462861858626e-04,-1.320067475096357293e-04,4.888560820996451940e-04
-7.479385097053393441e-05,-8.450131352931219563e-06,-3.863790963171798262e-04
-2.566472306133583904e-05,-1.181668011731396782e-04,-4.834615314944216329e-04
-6.765730832465312794e-04,2.914020535799548848e-04,1.273699812050574777e-04
7.743827463066017228e-05,-1.600677128306737037e-04,1.402901134954885067e-04
-4.074565440839146373e-04,1.053717283274987039e-03,-2.509272971405037897e-04
5.727368987416695326e-04,-1.900843780688118035e-04,8.833777417021646341e-05
3.398502488043730939e-04,4.726896281513513960e-04,-1.037981016078449656e-04
-4.282802342479684744e-04,-5.850150403955970595e-04,1.349864151389693415e-04
1.575838841739935815e-04,-2.478576773949977695e-04,-4.264361793345423685e-04
-4.421706760521349855e-04,-1.469782233751932893e-04,1.983503472514829631e-04
-5.954087544471112995e-04,3.420036820661620253e-04,3.943669594338757695e-04
-7.565561858858306250e-04,7.385008378123239189e-05,7.824050186443228623e-04
5.622536691551163800e-04,5.337240816308566572e-04,-2.131688564048305314e-04
-5.341328846315254644e-04,-4.039378953234251451e-04,-2.276623995763941109e-04
2.837844794312799194e-04,1.363738319913536769e-04,-4.805041789376830632e-04
-6.744465288961965736e-04,8.592279173304084438e-05,-1.774575042246743888e-04
2.807732515944900910e-04,-2.771115559103549909e-04,-3.359023184678029748e-04
-3.597656914012541834e-04,2.728692637867292958e-04,9.633029102856174462e-05
5.277253058728309629e-05,-4.813753553203720613e-04,2.444446310527982391e-05
9.963285113651959210e-06,-5.005339967566385445e-04,-7.615040639479276610e-04
2.476935151032657613e-04,-5.854511072548947604e-05,4.866218266438597972e-05
-1.609588278204601296e-04,8.102798073950689462e-05,1.642022148639705125e-04
7.346319637588980391e-05,1.988031308997432751e-04,2.005241083729741348e-04
-5.369844025286138554e-04,9.973413013584489419e-04,2.183323202340983087e-04
2.558448452767975298e-04,-4.638509952753643202e-04,-5.912266116722396945e-04
6.995008339744932587e-05,4.882145644698810457e-04,7.008163910904339567e-04
4.951368800674734024e-04,-2.091687679490221907e-04,-4.737942588822793670e-04
4.126178820768466469e-05,1.671253023021172410e-04,-2.879792970578506505e-04
-6.889757521460719056e-06,6.134463837429646182e-04,-6.764186985489687787e-05
1.848404582641321797e-04,2.255338819240997101e-06,2.883282763916727000e-04
-1.181174081123025185e-04,2.248009953156503897e-04,8.329010213407369711e-05
4.669824431285607099e-04,2.313752231752226596e-04,-2.993511780342472846e-04
-3.901398971319537808e-05,-2.920718973872892367e-04,6.676560491851915428e-05
5.198805038361284337e-04,9.092434385684809110e-05,4.506300032060342204e-04
1.496125199360581054e-04,-5.591244181944218360e-04,1.315489993217831691e-04
1.708261108666645704e-04,1.522842100082891952e-04,-3.268091826678872804e-04
5.432760599462854376e-04,5.081188923717240710e-05,2.216119678561419954e-04
6.092897465367455622e-04,2.334813006235791270e-04,4.994779764721615539e-05
-5.546328078175713245e-05,9.748672090704588644e-05,3.219670615790463757e-04
8.300183445276949684e-05,-9.977819528978871361e-05,-1.374306909361998189e-04
1.578667676489426449e-04,1.146574136368924620e-04,3.208168434235610534e-04
-3.820502100370862914e-04,-2.408443311832484551e-04,3.861244449245986336e-04
-7.026271639239120353e-04,1.533510987349250238e-04,-4.615615403813444159e-04
3.674160857302142895e-04,3.193382742187884211e-04,-5.364942196418218373e-05
-4.430237890377769733e-04,-2.400303457028253248e-04,7.964938207690285400e-05
-2.321914885262954260e-04,1.383943636245358265e-04,2.209865992483948309e-04
3.203421654070788657e-04,-1.675634455289661722e-04,-6.545260292967842921e-04
-2.827086708804128052e-04,-7.892773641603931234e-05,2.281378928908027730e-04
1.357167809144258972e-04,-2.606034296389515571e-05,-3.812039329047801624e-04
2.189215230838994510e-04,-5.794278096583957557e-04,-7.033501378335569253e-05
-2.923004538445364998e-04,1.887507592253936071e-04,3.179247331540597610e-05
7.290340195896011135e-05,-4.172768922310777649e-04,-2.612311697544375641e-04
2.705459901408682408e-04,-9.466158967708295402e-05,-7.427556165634604428e-04
5.727541497781520920e-04,-1.198464945130787242e-04,-4.565946380116281205e-04
-1.639905306656745502e-04,-2.189981469369440365e-04,-2.803113378553769150e-04
-1.131868835918003368e-04,6.025622394165563046e-04,-5.607829525589277985e-04
6.864372905303563384e-05,-5.695066457512245250e-04,4.066596796167024032e-04
9.719006944697079385e-05,-5.351254222038387409e-04,8.009216622769961948e-05
5.681162661788078565e-04,-1.576296331155329592e-04,-4.461019967481555604e-05
-6.952579340649321865e-04,1.621707292525117854e-04,-2.719394762162628885e-04
1.464343999760142785e-04,8.736357976331407364e-04,3.548624835519420908e-04
-9.344050862464392125e-05,4.392514886407685809e-05,-2.208891469842103039e-04
1.320320739011583038e-04,1.101129995752708133e-04,1.089206453962573458e-04
3.099935405139301074e-04,-4.380772789130617413e-04,-2.221119640657806722e-04
1.396797444281212266e-04,7.012570590864503843e-05,3.753586887206754812e-05
3.405944811017781656e-05,1.346499431169194550e-05,3.484049555012917157e-04
-1.698083481500732214e-04,-3.320462191575411395e-04,1.034675127635309531e-03
4.008127687533378537e-04,8.852203454358052433e-05,-3.148574022278821162e-04
4.049444886999207182e-04,4.215811892091921926e-05,-2.777751086612169221e-04
4.457649599215686887e-04,3.807604820337465434e-05,9.292177620593807994e-05
-4.473130287600270388e-04,-2.711762521044124737e-05,2.510798659708252394e-04
-3.875328220501796659e-04,-9.871602226553664492e-05,-3.203936188418653728e-04
4.526751498625164244e-04,-4.180050566595505256e-04,2.213607244388437741e-04
3.461023986205167093e-05,8.746243408506462985e-05,-1.223872329467034907e-04
-1.087993334643332496e-06,-5.029748568651822824e-05,-4.701966676915372411e-04
9.649714764202640396e-04,-5.463667390305850533e-04,1.365324999508290269e-04
-9.067711500042992744e-05,-9.394341794196982873e-05,3.545669553437280695e-05
3.765193628678375755e-04,1.456795794296499437e-05,1.309808806994433280e-04
6.453515474139064321e-06,3.462263042637771931e-04,-4.178038198137049432e-04
-3.090006673786793679e-04,7.070564641317563989e-05,3.854342179514144403e-05
-1.741749924509318774e-04,-4.003309657766082738e-04,5.208078355578229937e-04
2.646083130647023949e-05,-1.750104157950831715e-04,9.060834189753963876e-04
9.991674926251638029e-05,-1.019939158332711695e-04,-2.993024355681664296e-04
-1.980036271169658478e-05,1.065442370105219551e-04,2.093778638745746423e-04
-2.524872114421467472e-04,2.672938633308751498e-04,7.367284812453180889e-04
-1.314638782549314112e-04,-1.205811315203031962e-04,2.046037321812993199e-04
-6.052794810462542793e-04,-2.493118363689235525e-04,-8.485007456063700453e-05
-4.171641753886103521e-04,-5.437446634098072086e-04,6.901570587542681566e-06
7.547375344751408295e-05,-3.651475799138383235e-04,-4.531913138203797083e-04
9.371039739998753308e-05,-1.628578402152579404e-04,-1.816787335697906097e-04
-9.724725854004873040e-05,-2.448740993457245319e-04,2.962980243561164089e-05
-2.493528688422529116e-04,8.539138728984736445e-05,4.036493041930542202e-04
-1.347703398102265192e-04,1.294221255584525191e-04,-2.539518137652214220e-04
-1.883343746880911172e-04,-3.009367285054809498e-04,-9.742297353568807610e-05
8.402365523539888923e-05,4.526332641706655685e-04,2.913311332722947093e-04
4.695692565039046268e-04,-2.625085802397248130e-04,-2.583975916478175298e-05
1.122799212383317809e-04,1.056007403742190337e-05,9.840725654024405308e-06
5.833839951716511757e-04,2.555739734136999741e-05,-2.968946151270651635e-05
9.801686234894652820e-05,-1.045605077045445858e-04,-4.646353287722021974e-04
-3.392644474158459456e-04,4.399741884058284134e-04,1.191471561701178697e-04
3.612153978365956609e-04,2.802466800555373822e-04,4.344753503564479855e-04
-1.464971982862786355e-04,5.516733776842325503e-04,5.782894358146752067e-04
6.767543968432565582e-05,-1.580252683071936342e-04,-3.482170068688118379e-04
5.091876125680573975e-04,-9.836885838180188090e-04,-6.411253201617537556e-05
3.616138633857735149e-04,-2.887134713148853523e-04,1.116174183463396110e-04
1.166467877696859850e-04,-3.255673525382314854e-04,2.080491145825748192e-04
5.102928129310646673e-04,-3.649338648981723522e-04,5.937500983754856942e-04
2.753760468883442009e-04,1.581492320607095223e-04,1.034909627060211028e-04
-2.050171553160079041e-04,-2.192302843754879473e-04,3.529070603600623405e-04
-3.842363244637928377e-06,-6.124644523767619822e-04,1.896101347423351507e-04
-4.461490785844195032e-05,9.172962863036990180e-04,-5.203015751475373752e-04
-4.047227498312578405e-04,2.412616158984746560e-04,2.302294393219669693e-04
1.173990670615211230e-04,-7.323185685608850088e-05,-1.306718800331011161e-04
-8.118050758862921476e-05,1.474390415675099549e-04,5.161191509865532394e-05
9.368995845113847309e-05,-1.625268791750845900e-04,-1.807380522192071788e-04
-5.210011177836748435e-04,-2.955865172125945019e-04,-2.416319698877640056e-04
-2.652035238150449842e-04,-3.270581512081429016e-05,3.008019855631628280e-04
-4.248789644580812223e-04,3.693718819947904193e-04,-4.104884782784623846e-04
3.931097100920879876e-04,-4.518306473447615814e-07,-6.327058312558987577e-04
-3.474857007650405841e-04,2.303856401712299344e-04,5.410419826524458695e-06
-8.563056654884047478e-04,-2.515196233607593481e-04,5.328194390539307129e-04
3.787840274274512716e-04,-1.928465197677166224e-04,-2.857804064853983515e-05
-7.920541067610570697e-04,-2.909771183324761853e-04,6.785303564383329204e-05
-3.844136387828376677e-04,1.183027745584997836e-04,-1.495363498778313777e-04
2.566339972681460821e-04,1.703089804518231464e-04,4.818116143073582902e-05
-2.312079765458373016e-05,-5.032639003525235164e-05,3.401312652787239822e-04
-2.691819512579113186e-04,5.146358738330070876e-04,2.884516676844351996e-04
-1.056906828201221803e-04,2.223026244510416163e-04,7.270819812895616251e-05
6.981894099870214303e-04,5.201961690704217842e-05,-2.673424802116412878e-04
-1.947723666003424881e-04,3.431429750907894052e-05,7.263292408870326833e-05
-3.022107493824048932e-04,2.375642825104843031e-04,5.263545189346530975e-04
-7.830297286709224835e-05,2.952070515448427496e-05,5.849878298790730689e-05
2.912930746244869057e-04,-5.085753927557999307e-04,3.794823934094623385e-04
-1.398433223300191033e-04,6.305572260386356279e-06,2.841655435232199895e-04
2.235070910488213278e-04,4.797201361313743967e-04,-1.839403408278325136e-04
-1.352546256713514896e-05,8.437743792521660647e-06,5.788592978826092401e-04
-1.103752978213619725e-04,-2.341173696560918912e-04,2.107803395869347555e-04
-1.960403398808562340e-04,-3.672400383082883592e-04,5.776446293012021732e-04
-4.772014948913780004e-04,5.178513308058462026e-04,5.482593717102848905e-05
3.546022372718516660e-04,2.494401669079111816e-04,4.037333530265995764e-04
3.407919890537183306e-04,-2.495729686172191357e-04,5.221266688313582795e-04
2.644396565659038519e-04,1.418484372845983167e-04,-1.836097188781263755e-04
-4.538651901107713829e-04,-2.776304343572782909e-04,5.329168758101939310e-04
9.787277781272271855e-05,9.374516718758317243e-05,-1.975357863825764730e-04
7.803999387787037339e-05,8.336660510955188176e-04,1.399857949016915573e-04
2.220922135299266918e-04,1.606473362136514379e-04,4.654449639838135068e-05
7.983847081797119531e-06,-6.758688780444160795e-04,-1.972954084171490052e-04
3.868599935658244260e-04,3.501371648131715590e-04,3.917615528848173746e-04
-2.317010474282749674e-04,-1.602884552297147039e-04,2.472896320318577687e-04
2.444967439604556030e-04,1.660278545129635229e-04,-4.856708538511907646e-04
5.919830685787432975e-04,8.019866027443079987e-05,-3.095700728922689952e-04
1.358311103805559335e-05,8.037896240211948634e-05,1.467048568797691495e-04
1.036823267851014077e-04,2.248145091677531185e-04,3.527472124163372755e-04
-1.180362101643743402e-04,2.481778714238249512e-04,6.052042246083767394e-04
5.047704080466515963e-05,-1.078046731833397876e-04,-1.078010009052504908e-04
-6.602526958918259956e-04,-4.689331439219590852e-04,-8.874021296062451142e-05
-8.504390359193956389e-04,8.627008225123949622e-05,-3.331118807290516220e-04
-2.696179290750842176e-04,-2.812735750362729001e-04,1.138919245649937766e-04
-7.098338694235433236e-05,-2.385862071526603366e-04,-2.181753712413233312e-04
-1.888523662692895429e-04,-3.052122671426760539e-04,-8.722097791018247322e-05
8.504193173378196680e-05,1.439109321009282572e-04,-9.186510589579052462e-05
-1.466738711097312269e-05,4.516680712608974239e-04,-1.918545616785109764e-04
-9.012403961710543335e-05,-1.259031090420441291e-04,1.681440786194009215e-05
-3.067711110885504755e-04,-2.062274547995270209e-04,2.706032193101087671e-04
1.576984050185244223e-04,2.490758365681730482e-05,6.404882959122927544e-04
-1.049408332306100327e-04,2.063183738111036385e-04,-7.480676324267968502e-05
-3.490312120401289171e-05,-5.322638837279713856e-04,-4.602684745641460692e-04
5.923796487159584210e-04,7.673570093287144015e-05,-4.929537332787093133e-04
6.221018807586039742e-04,-7.989526228592163965e-05,4.168091403189798242e-04
-1.851968998474780997e-04,-1.314405418201035152e-04,-4.984497200585492693e-05
-3.141448472836387367e-04,9.446918114815492729e-05,-5.606759592411361291e-04
-4.590298265186920417e-04,-1.906352542988145975e-04,-1.581677456699904675e-05
5.756494557477785093e-04,1.120125815635335882e-04,-8.738403277497207777e-04
6.186486307520157931e-04,7.550764974361331701e-05,2.962433751797387466e-04
-5.899576248920404596e-04,-7.480151760490467462e-04,-4.690861440215963671e-04
-4.308882687976726359e-04,-5.141442407747195682e-05,1.307279144079981328e-05
6.083428039256572701e-04,-9.679741342611401008e-05,1.489162746394023882e-04
-3.314938439277185936e-04,2.487496503923890745e-04,-1.975942910860224385e-04
-6.828802114303508418e-05,1.080451347684371460e-04,-2.374114748891085406e-04
4.343322290483543949e-04,3.871379781622925551e-04,-7.008833435931534047e-04
-1.617105856148121177e-04,-2.112147315874133310e-04,-6.106210194266716365e-05
-2.599223356505579282e-05,-3.325450300214466003e-04,9.729855561120824862e-05
3.666404031548163339e-04,1.801691944103074215e-05,-2.683986246753812337e-04
2.758249087233183077e-05,-1.260125185046115598e-04,-7.152875076060146190e-04
3.751609556047032570e-04,2.965652798712480206e-04,-2.349530641306809750e-04
-4.793853989344609647e-04,1.111617907781069789e-04,1.900202974954364344e-04
4.846876579209142579e-05,-4.341435142889552067e-05,-1.254154991941770477e-04
-4.449024736604463180e-04,-2.562139578361152611e-05,6.963353391270301891e-05
1.354859251106449577e-04,2.291017448910600217e-04,-1.476973975215718519e-05
-1.799037439388154734e-05,3.098897762590914441e-04,-1.279864495349144647e-04
-4.421539748121573526e-04,1.410935394914829668e-04,-4.605710600865906565e-04
2.618210857909798153e-04,-2.368128285595405937e-04,2.790929732488190932e-06
-9.036767751309904664e-05,2.349008900049113057e-06,7.751661255331804401e-06
-1.732918699379082275e-04,1.716346044086173022e-04,1.720001363472203860e-04
-3.299260781934085338e-04,2.725594724664305254e-04,-2.276365441371761136e-05
-9.178573023343332188e-05,-1.268628764614197909e-04,1.148080178205947881e-04
-3.025269502967350304e-04,8.697885153337825382e-05,1.201021974320747271e-04
-7.866959523130279643e-06,3.557449574624131335e-04,-2.122908384432719935e-04
3.573012005133400083e-04,-1.481884725971340324e-04,2.224196161246679536e-04
-1.991300068136030936e-04,3.516600155578998349e-05,1.754208333965307388e-04
-2.675299023534143941e-04,7.009283323755992707e-06,1.158030328010086700e-04
3.610671951936370418e-04,1.555960573364210985e-04,2.091867276485921635e-04
5.116332362269748833e-04,-1.719276995254812642e-04,1.977695591405978731e-04
2.706827384465229050e-04,2.466799066630451795e-04,1.804176276040278472e-04
-2.804211499986899596e-05,2.120893591268433164e-05,-5.441841755434689409e-04
-8.494590579955615050e-05,6.766735426850601157e-04,7.440674352913416575e-04
1.077692367442268474e-04,-1.741422797237547257e-04,-1.943679565589274765e-04
-2.095826544309933783e-04,-2.155337782589186117e-04,1.043469631449766492e-04
3.573811255238227126e-04,-6.263943647679259678e-05,-9.464064404431996578e-05
-3.843885543345890751e-04,-1.918247827068612367e-04,-2.613037883759122978e-04
-8.070703395930837250e-05,7.403689769203575808e-05,-2.475532475377188041e-04
-4.818195393762294740e-04,-1.822682626413511288e-04,3.572610647267072774e-04
-2.990944850351505186e-04,-1.865116440555900459e-04,-4.941677017341176460e-04
-3.901021384397491661e-04,5.117004072799814925e-06,6.193088547703605818e-06
-2.012642163788644139e-04,9.094041523803087250e-04,-4.759506308109125606e-04
-3.649837188618398854e-04,-7.819747285091333198e-06,-3.062651312018344947e-05
-4.979898307436980676e-05,2.434978243061402625e-05,3.021104772587445341e-04
3.046316318860858591e-04,-2.993465890037989982e-04,3.969502501348066655e-04
2.582853677510039362e-04,2.777857048947845347e-04,3.496169663979633029e-04
2.358532798406846485e-04,1.216080312962060969e-04,-4.696524307091493988e-05
2.213689089139036939e-04,-7.960089624642114779e-04,7.037899052459875386e-05
-7.956139184007536948e-04,-5.633297894810995537e-05,-1.072339845619862145e-04
1.828282318324959141e-04,9.069165825022597674e-05,3.142219272323302088e-05
-5.069185922510477518e-05,-6.299634593831401289e-04,1.649296119187389524e-04
2.900949133190258407e-04,3.159039689121872726e-04,-3.228741649570293854e-04
-2.234235997099607264e-05,-1.018303014117815937e-04,4.684307315201024537e-05
-3.632333591500339147e-05,-1.369863647442016042e-04,4.345760516186900161e-05
1.022558927623636992e-03,-2.743753652984039812e-04,2.820124929977715629e-04
-1.232246180063321288e-04,6.599753319623346106e-05,-3.536172801501956029e-04
-9.752956360378895850e-05,4.377409853693466578e-05,-9.392204013523562599e-06
-3.797542390008799558e-04,1.416829347111690774e-04,-9.501468134763842014e-05
8.735725924425484469e-05,2.692755382681616232e-04,-1.251098877231699073e-05
3.036032579370120813e-04,-1.931242373745484871e-04,2.804408021768543661e-04
-7.374475563935737807e-05,1.799897119013089608e-05,-1.614131492846049493e-04
-3.169400528355180088e-04,1.799233131604223630e-04,6.459239988275071020e-04
5.949959531549902291e-04,9.343650930689699464e-05,1.175502992530563741e-04
1.370793522553331551e-05,1.516219372766795857e-04,-1.124507976098621594e-04
-2.576523485855801931e-04,1.089394118623652526e-04,-4.336783620593740222e-04
-2.004387077370849146e-04,-1.755243882198131305e-04,2.092501594041828235e-04
2.073669089536792575e-04,2.342074547547644160e-06,-5.978700916156721139e-05
-6.574319427120874169e-04,1.498378285348403948e-04,-1.712770906016005019e-04
-2.671471194346039394e-04,-4.449281526015309291e-06,1.245491012532497655e-04
4.458288720529480294e-04,5.379641850494806636e-04,1.748744331332488579e-05
-3.906706921851313950e-04,2.253124469688087535e-04,9.790361915238168214e-05
-3.155412573350915156e-04,7.282940824525934624e-04,1.493173635025401549e-04
-7.584828378088576291e-05,1.085613108804914594e-06,-1.987710757830867404e-04
2.263490140470379917e-05,2.663433799383539387e-04,2.620389496497297038e-04
-1.828958824652685325e-04,1.258479906625591777e-04,-2.927639646983812120e-04
2.036040266389365239e-04,2.731250577603799596e-04,-3.793944378600630062e-04
1.853363361121065738e-04,1.981872544306062544e-04,-3.700257386176692602e-04
-3.527064856658583807e-04,-2.491215803954594581e-05,3.060842147852899011e-04
-2.065038264690748971e-04,-3.903456487651635570e-04,-3.059862532459377369e-04
-6.026940670936719539e-06,-1.242537828576480965e-04,-4.054972432696217293e-04
-4.759062982398461835e-04,-9.659865900241048817e-05,-3.248669989796516486e-04
-6.383050051649899991e-04,2.603055636234435531e-04,3.085862601979197590e-04
-5.078041639653452672e-05,1.599978352334568261e-04,-5.894381461810203763e-04
-4.417439524992009068e-04,2.492359847441741517e-05,-3.762854338162017586e-05
6.029745723805468195e-06,1.582522136355947852e-04,-2.853661947799825872e-05
-2.298910649482107890e-04,-3.155073640313991816e-04,6.342225957681503490e-04
-2.278672081434737350e-04,-1.010200898231219816e-04,3.072198333168890314e-04
-3.364022476616436571e-04,2.327851783112906204e-04,-8.812209810370679299e-04
-1.444605850848142928e-05,-1.094955268043499338e-04,5.670553158783898625e-04
-1.990494483235637636e-04,-5.979514425103831486e-04,5.009109097012723463e-04
6.585210238204967014e-04,-2.131523137366545570e-04,-3.809489726886898324e-04
-3.256205419727250161e-05,-9.699964373083430082e-05,5.584461019511314421e-04
-3.930644674434681453e-04,-2.870430559121090451e-04,6.001679032191778104e-04
3.331175563133034366e-04,-2.268612313799171201e-04,1.790874707198555790e-05
-4.352102826139357688e-05,-1.830732734441441862e-05,-1.747120584348927383e-04
-1.615118781453203818e-04,-4.025043595232714313e-04,2.975703379132565518e-04
4.482586262301622797e-04,-3.576137629813507944e-04,-2.545156171688623195e-04
-4.892218402484038112e-04,6.923276836908697201e-04,-4.785334158673144422e-04
7.886327945810901003e-04,-3.321036627211432506e-04,-8.862247971029140739e-05
-1.877279476462924109e-04,-6.196079568890135473e-04,-2.250033924258921158e-04
-1.873183243401495572e-04,-1.167412474093947961e-04,-1.642234473026875819e-04
6.324253939318075744e-05,1.180646760381673545e-04,3.404761533733800609e-04
4.480941753021972608e-05,6.372543866929188434e-06,-5.928724807777601986e-04
1.975462014887862630e-04,5.848839470588214790e-05,-3.468169342851687149e-04
-6.113933849741240369e-05,1.690256863271814500e-04,4.048860143651529736e-04
3.737579638277910765e-04,8.757464769742421672e-04,-1.381201658365569288e-04
9.634192287231339109e-05,-6.785685326580445697e-04,-4.494113930915924634e-04
1.586978242738072925e-04,-2.284172880615433605e-04,4.890263706608107501e-05
-4.608101153760114395e-05,-3.856644229254856202e-04,-1.034640414865791163e-04
-3.094988630713160316e-04,2.950208945352082810e-04,-1.312236823800310280e-05
-2.755494774897929719e-04,-2.357915245768266177e-04,3.906101299889058178e-04
-4.087217273951632189e-04,2.124616733490576072e-04,-2.656519849247223415e-04
-1.349401612109832349e-04,-9.403618044428067109e-05,-5.074724366923999289e-04
5.461675830332688643e-06,6.649464096215201066e-05,4.731340484959228811e-04
-7.124550178637639297e-04,2.500485028129696005e-05,-3.096795004442822201e-05
1.149247913379261354e-04,-1.586370136314064615e-04,-1.996289459225938955e-04
4.210629564728694276e-04,-1.073009964196724726e-04,2.104238666478247402e-04
-2.897245419504051187e-04,-1.816960289423030930e-05,1.346534926161696306e-04
2.320502273862947730e-04,2.526578889846942252e-04,-2.193527135155482366e-04
2.881908873001004902e-04,-2.845602309998191532e-04,-2.281355795633172295e-04
-2.279279606956109011e-04,2.024308347082364205e-04,-1.065622241503007652e-04
-2.808267494293423933e-04,2.440778706738163165e-04,3.481478448163132319e-05
-9.095945072927890535e-04,-2.057231182213141896e-04,2.629539259975658045e-04
-2.527214872336528599e-04,-2.529751467161253154e-04,-8.108374441810147122e-05
-4.679217108014624698e-05,1.637839286762319440e-04,-1.626099227739391030e-04
2.179888898549503396e-05,1.682821731955179445e-04,-2.620324012293911162e-04
4.574555878667976709e-04,-3.434020978075829722e-04,-9.194409323357881011e-04
-3.001197016012073114e-04,-3.452115515035000391e-04,-4.335312371092709316e-04
4.205809936035381932e-04,-2.516931278791485586e-04,-4.539445608922649145e-05
1.383654837534950468e-04,-4.523407401304209495e-04,-3.129193611253474434e-04
2.746140537195185358e-04,8.756482808062387784e-05,1.557799163615985951e-04
-8.258934222720007478e-04,-2.264155745440514338e-04,-1.980064560521334772e-04
-3.663090234618513776e-04,4.055692232719244737e-05,-4.255290019937309296e-04
-1.280824811294698808e-04,1.330467843888257830e-04,-8.112366641704092456e-05
5.779044156053079421e-04,-3.461062096641172271e-04,3.882704808228165877e-04
1.507403933746751835e-04,-3.470010420588130772e-04,-2.221949976365412700e-04
-2.980109677308763645e-04,2.697102027419006785e-04,3.403806060793714136e-05
8.377899441600565860e-05,-3.174433546172286376e-04,3.920244846098581959e-04
3.424267367548031117e-04,-2.742230213403721575e-04,-4.571625128438832437e-04
2.150643752120077578e-04,2.874462396579679623e-04,-4.773296317735670246e-04
-1.970111839261788676e-04,4.496566819011998863e-04,2.267208075726007761e-04
-1.714997954742631260e-04,2.811232370026240540e-04,-8.286162698161352372e-05
-4.636695535652859989e-04,1.759282737350009886e-05,9.708601269035873141e-05
1.422108457246724585e-04,4.284461209159539773e-04,-4.940989093360839690e-05
-2.450153151223325500e-05,8.654490946410887085e-05,-4.322266932820002404e-04
-7.037444358313550176e-04,2.742737289650706538e-05,-2.144308438084433844e-04
6.227941420665170525e-04,1.143921442112358401e-05,4.975872254944740773e-04
-1.582939136446880057e-04,4.339180742371193155e-04,-3.257312393981617784e-04
3.364796783844956610e-05,3.814096802667524678e-04,5.118518309512263545e-04
-2.321977230668424166e-04,-3.314179587559314458e-04,-2.582011570563429235e-04
-1.034656125393580382e-05,-3.350393287829573231e-04,2.506510673563973248e-04
-2.687645985747052135e-04,2.151887420286880607e-04,6.762369328360295397e-04
2.334458414606410052e-04,-3.912803433529195361e-04,-3.132850966688900218e-04
-1.512832670347220474e-04,-1.500814951143035752e-04,-3.221372992374230983e-05
2.658335512390877834e-04,-4.133539445209052118e-04,-5.147984705849815859e-04
-2.878885921741981108e-04,-6.955464218229301127e-04,-1.605804038316582284e-04
2.134502159964265665e-04,8.450945273353723734e-05,7.310978656020641984e-04
-6.099759451907737530e-04,-1.878384589755379547e-04,-1.956858332896693026e-05
3.502349931943498913e-04,3.414621351141244833e-04,-8.178772221817982716e-05
-7.893773143622246887e-04,6.660341817178644971e-05,-1.036987881611336977e-04
-4.285709883000086962e-04,-1.282573797385747614e-04,2.027738163592367258e-04
-1.933097465888793576e-04,1.197338997170522716e-04,-1.441028375348292338e-04
-6.215694330814347664e-05,-1.891002670038734266e-04,-5.423507932824369552e-04
1.419446290975914793e-04,5.924249982624054962e-04,1.945682072301251205e-04
6.361459729887175790e-05,1.683866925087232141e-04,1.103112113913495151e-04
4.320450946868902606e-04,1.942285338301546934e-05,1.438605947279473009e-05
-5.437948769105247762e-04,-3.351121777631623031e-04,2.806345195990270908e-04
-1.627455698709087369e-04,9.962892616330945854e-05,-2.293342422613793975e-04
3.560966576966274931e-04,7.661706477097147928e-04,4.974290713237243490e-04
-1.632864871056140721e-04,-1.220992312857271673e-04,4.912685310932977169e-05
-1.653096312623246521e-04,1.717426361509194412e-04,-1.299923829367860456e-05
-1.137545432709188473e-04,5.266251121241937935e-04,1.095183766125319903e-04
-2.292041081489280620e-05,-4.338792781859888634e-04,-3.119534748464040724e-04
-7.055321681707247487e-05,-6.793557070188109863e-04,-2.500502956423904309e-04
7.444897574027117631e-05,-3.464166294274378488e-04,-1.483238087446660269e-04
-2.179319931265425489e-04,1.814347844544278053e-04,-3.557039238386836325e-04
2.189286611344861484e-04,-1.581251107608993211e-04,8.300557289876338285e-04
1.785047555176642018e-04,7.654713241441995358e-04,2.062538408002176360e-04
-4.711893655774728666e-04,-4.869841187835866975e-05,2.464404708652920479e-05
1.909760459624707703e-05,-1.485228430772639514e-04,-5.277855826503670975e-04
-8.750699626342784625e-05,6.987449672410248535e-04,-1.359521986055564819e-04
-3.675029412722470687e-04,-9.573240909051405228e-05,4.637741070467006139e-05
2.535104704936962799e-04,2.705270114822752071e-04,4.676312136350549951e-04
-6.836142341324392437e-05,2.522827336808900229e-05,-9.895472528671831294e-05
-6.244884815943615866e-04,-6.723386778795640043e-05,4.519654758669159949e-06
-5.200690847402298180e-05,-5.860356109270487999e-04,1.947845057256870330e-04
7.396108284273595094e-04,1.286285335885886400e-04,-4.488992369201625244e-04
3.513983672557317384e-04,-1.624716142960453975e-04,-3.082983213433624910e-04
3.706286074171977196e-04,3.782594582720279490e-04,-4.728721459609320295e-04
1.105251142843707206e-04,-2.292146108585358104e-04,5.567068176586784144e-04
1.372805563672193177e-04,7.148798655779151946e-04,2.443821362150294554e-04
2.343774520481318329e-04,-3.476060112532151350e-04,4.634646313882404846e-04
1.732207581560739980e-04,-5.185980788009286703e-04,-1.551805222599419597e-05
-1.862088816214048305e-04,-2.767779736747557544e-04,-3.822899762410387038e-04
-8.596626558383249151e-04,-1.979189213781449479e-04,3.800693567037879495e-04
-1.099979892678878469e-04,1.489093801528140607e-04,-5.665930865224074310e-05
4.061544502607157439e-04,6.835765133666230585e-04,5.319766741694377001e-04
2.348994879182318609e-04,5.147382899432217116e-04,2.437206365648342959e-04
-8.230748773107940267e-04,4.648747583836320384e-04,4.290874253239007532e-04
-6.819645056750391326e-04,6.260640608163421202e-06,-8.209312396891299036e-05
-2.007006322219700338e-04,1.408191754993078028e-04,-9.597864122610135916e-05
2.020735216444916960e-04,1.877889930822237801e-04,2.632688603187092720e-04
2.202444880600172334e-04,-3.604207008616141009e-04,-2.111834847937743120e-04
3.419888196098397337e-04,-1.671296639744070231e-04,-2.488797939740450662e-04
-3.736333359488342031e-07,3.163838078944371636e-04,1.188395992743822391e-04
3.152060036590647544e-04,2.386516268798421331e-04,6.429323763105397258e-04
-4.785803597611592739e-04,1.494606588652302190e-04,-1.930796509964772373e-04
1.075319591119769705e-04,2.212936925005597275e-04,8.172671486380878340e-05
-1.463278323030013368e-04,-8.405677331152423045e-04,4.897175355975887958e-05
-4.899857201080062841e-04,5.723199337029612546e-04,5.179385496139484965e-05
3.675244914428001781e-04,2.962571366414558740e-04,7.280299934485404915e-04
-8.971911380726166904e-05,2.404169153132626805e-04,-5.419562494437626422e-04
-3.680857999709577868e-04,3.535092545958432814e-06,3.770732187221959670e-04
-1.451073474519045195e-05,-1.788607806345698492e-04,2.951584310473448535e-04
-2.524844849095313421e-04,-7.288191856896533943e-05,4.126365928170316541e-04
-4.372850517222588934e-04,-2.752523355346015409e-04,-6.878611131038747694e-05
-2.430447764212289989e-04,-5.366619201397324101e-05,1.909224579620464582e-04
-2.321404955924321202e-04,5.626717447612737504e-04,3.694071602403189341e-04
-2.991680945047684240e-04,-4.077343862391364141e-04,-1.643547263393198450e-04
3.915852499683953334e-04,-1.207995621589633752e-04,1.301219563348533151e-06
-3.181058787284087811e-04,-4.098530058763119637e-05,-2.787042396392057841e-04
7.470117361744896484e-05,3.251304490723768044e-04,2.153283313196682161e-04
2.750882735870457518e-04,-6.026074558679645919e-04,6.194930096953162046e-04
-4.568647576542474685e-05,8.757503235924598032e-04,-9.257290391367743601e-05
3.267759459229167243e-04,6.570161906500357561e-04,-4.303981333616865163e-04
-5.104165771638309156e-04,5.873502812452667055e-04,7.156493283799351740e-05
-5.258559730914275174e-05,1.770544675132030394e-04,4.863102043394314813e-05
-3.795913055296008375e-04,-8.704978561524406877e-05,-7.291581843453608764e-05
-4.104715016402702104e-04,-2.179067287330545559e-04,8.151457491373912561e-05
-1.971513802238064432e-05,5.415083747039246874e-04,-2.325933838764561765e-05
-3.178247145176196840e-04,1.611952247018754510e-04,4.156175367475049105e-04
-1.051375572241894450e-04,1.411578705644791652e-04,-9.450466637452005980e-05
-2.308787165609300657e-04,4.741509132833390426e-04,-8.973953366001226079e-04
-3.579302938804425067e-04,5.138102557982809557e-04,4.257594774905343122e-06
-1.399950247925336305e-04,-7.306624693187625417e-05,-3.256532765997255667e-05
-2.848809788997881635e-05,-3.048513943087100583e-04,3.459945522933863390e-04
-2.731499054424353667e-04,-4.900907244470812003e-04,3.655858993494432558e-04
-1.173127413867383959e-04,5.322584288557056934e-04,6.925619887780856253e-04
-3.469162593406875531e-04,-3.057639185312552538e-04,9.789657797309477124e-05
5.362530195847102542e-04,3.843959731615258593e-04,1.191601661691591118e-05
-7.282996167968785062e-04,3.508737100523796047e-04,-2.791697398267276817e-05
1.682731464765758838e-04,5.410682484601016858e-04,-1.844027263658948009e-04
2.309133974575056992e-04,1.004551170237203577e-04,1.544206486746266022e-04
-3.178201468841102516e-04,5.400715476004908176e-05,-1.875109825447508001e-04
-4.940786289871465552e-04,-2.540762773647159910e-04,-3.890651852362525141e-04
3.269185603626949287e-04,2.500357158378581335e-05,-6.167249775251604530e-04
2.279407450922007908e-04,6.714906589317305599e-05,9.036252937802298480e-05
-5.912421673944304179e-04,-3.107388334768029477e-04,2.841773530625717322e-04
-7.238952424160165211e-04,-3.848110096615028252e-05,-2.103853439046165076e-04
-1.239214349414268228e-04,3.855692140325390821e-04,-7.076855297647391277e-04
2.246986541789444767e-04,-7.394527869307627749e-04,8.098609618390914479e-05
6.747156984828187780e-04,4.655804582234467060e-04,-4.898347187108783272e-05
-2.230769754338071621e-04,5.959147514302855220e-04,-3.807894179537615279e-05
-6.838674933841258760e-05,2.436336220490637513e-04,1.231927886937412523e-04
-5.123569377090686494e-04,1.069506278093799957e-03,-5.441314911773744571e-06
3.000417360124261047e-04,-6.300655185528290054e-04,-1.639335233860697311e-04
1.754912155268703079e-04,1.900040690295581034e-04,2.325084175504319784e-04
5.403538059187154791e-04,-3.604530387009045818e-05,-2.732996704667168273e-04
-3.031616815443595025e-04,3.332020343777831171e-04,5.681236124422434260e-04
5.764896445382782343e-04,-6.044256181020720353e-04,-3.187304098450748492e-04
-1.685431576426820593e-04,3.379727063758169656e-04,3.472510986140980881e-05
1.112409714066156811e-04,-4.483970128350810440e-04,-2.910603659628194510e-04
-2.041734697602510824e-04,-9.042947877609237796e-05,-3.763660398268986094e-04
-4.978135561845869377e-04,3.419790233061990523e-04,-6.606989940254865247e-04
2.854389023878998641e-04,-3.037384441601644969e-04,-3.401135646169385857e-05
-3.410235000299970674e-05,3.569043945174142987e-04,-7.305536876685296197e-05
-3.910581697914860557e-04,-5.962484011032624350e-04,-5.608045623499470240e-04
-6.338179272412644896e-05,1.586809483732091661e-04,2.516699808224945583e-04
-3.885515928556859309e-04,4.650012444840399893e-04,1.065666892629996311e-04
-5.177278405113787570e-05,9.536902583459259085e-05,-7.386073989054217810e-04
-3.548634308844771535e-04,1.751014550619677792e-04,-2.908595613897136615e-04
-2.090647968085684969e-04,4.082782861114647981e-04,-2.080896674391101713e-04
-3.658148008862082681e-04,7.177155862025115898e-05,-3.771797362798534939e-04
-7.415381117944552314e-04,-2.649204540282255839e-04,-1.688744392395096015e-04
-2.669064187555829121e-04,5.461365363075288266e-05,2.604995854722784877e-04
4.098028370274339678e-05,2.473697382054575872e-04,7.589184569835673072e-05
1.973481230380899653e-04,-5.298506683984032526e-04,-3.145927020587045600e-04
2.012403420928467982e-04,-2.343999858654324928e-04,-2.445724518341280845e-04
1.200742983714031623e-04,6.543631494635378286e-04,9.815228352441933337e-05
1.826266129183379597e-04,1.627706873323700782e-05,-1.346838510871145459e-05
-3.916820869266441274e-04,-6.359308728878085748e-05,-2.831036836340466599e-04
-2.535167072409600405e-04,4.184476713557595053e-05,-2.232154776119370568e-04
2.002013727934638535e-04,1.379097642416593202e-04,6.749563186123836486e-04
-2.903245146774949118e-04,-3.309121708893824980e-04,2.005453704201263739e-04
-2.184817798824771715e-04,5.038213255722623596e-05,-2.455236981628027172e-05
-1.324070477028149186e-04,-1.409795358505346323e-04,-9.909230534197608828e-05
-6.315784179203969007e-04,2.923592249154148082e-04,8.029292863557757035e-05
-2.967639126752633994e-04,-2.273959004209113823e-05,-2.184609872340789836e-04
1.404992476750106117e-04,4.927125530366787841e-05,-1.543997775428482326e-05
-6.801778023011197355e-05,-3.549723897858227074e-04,-1.604274417385239207e-04
-1.345226779050758621e-04,-2.545038737510235726e-04,4.672577458522948448e-05
5.254489346336648018e-05,-2.416053923770543387e-04,-3.532051678553320005e-04
8.315113000703846385e-05,-1.831575717403723463e-05,-2.372762801193926030e-04
2.794830666958236353e-04,4.058165933720341576e-04,3.495263005090534195e-04
-5.784716619002605109e-04,-1.059117241276943131e-04,4.652844273294120354e-04
8.450522382319182414e-05,4.148767687529657483e-04,3.979952041616208506e-05
-4.392252608832130463e-04,2.363004187832260850e-04,-1.898784676607345604e-04
2.949873782683157115e-05,-4.260264202475879530e-04,6.123664914041522989e-05
2.265242397221119543e-04,2.897077015530614627e-04,2.323886753822761858e-04
4.296590045878797052e-04,4.720770967869947736e-05,5.470978413021268646e-05
3.071654979127772292e-04,3.232336308631010981e-04,-3.404350405031528496e-04
-2.790976728809420066e-04,8.407033908928799313e-05,-6.832819899765384553e-04
7.412930598891311626e-04,8.141753681519786189e-04,5.602712578820934089e-05
1.298706897071590591e-05,-4.919715339641025443e-04,-8.720739666306046446e-05
6.492791009240550038e-05,1.417277995669459576e-04,1.133150178371669870e-04
-9.424549101305292227e-04,3.830560530792320902e-04,-2.656433652922898835e-05
-6.163033997593972543e-04,3.325637080007169395e-04,-3.156031606470201755e-04
1.431718179167794326e-04,2.457307341007397238e-05,-5.263653643488818952e-04
-5.597180103113501455e-05,-8.364586489098568313e-05,1.269820130565653892e-04
3.987955656464433870e-04,2.402083979882115207e-05,4.003053671789720655e-04
-6.158863210832555288e-04,-5.438915311185352338e-04,1.967961572854743356e-04
1.000220846348841557e-04,-1.553796364315301209e-04,3.303532051762047748e-04
1.187151243175237953e-04,3.149869459699398548e-05,2.067016648569413369e-04
-1.791095670249365077e-05,1.248060114069278492e-04,-3.895738411118201050e-04
-2.761251858596293395e-04,-5.184021989613008322e-04,2.645278560930242940e-04
-1.171907995804197727e-04,-2.960354393884168664e-04,3.706041028164784395e-04
3.600932294522603836e-04,7.096400316573334274e-04,5.621900339860828920e-04
1.737873887936986872e-04,-5.906317572409041945e-04,-2.073611308398188061e-04
3.952817042881232355e-05,5.116859523812086638e-05,-2.996510980335795804e-04
3.684978205136569293e-04,-2.754719413683671611e-04,1.615793920422759140e-04
-3.528917135543802215e-04,-3.576937840760876451e-05,5.792245382825393331e-05
-3.356772577584681526e-04,5.257251303672173456e-04,-3.496785784861164534e-04
-3.086129031565842343e-04,-2.614388209265498418e-04,-4.062019621193117607e-04
8.167947294764491624e-05,-6.243152570544478926e-04,-3.635659633159954738e-05
9.463266228825218665e-04,1.648052147223644329e-05,-6.996256671059464900e-05
2.425063916624365312e-04,-2.589008396582832285e-04,3.213057229373555697e-04
1.021495333458288465e-04,4.689929088753674890e-04,1.728812076119686056e-04
9.406361217322106131e-05,-4.678539966117482678e-04,-2.431135876711943290e-04
-4.276430652772139846e-04,2.478545176811165502e-04,3.257996958032112201e-05
2.488661347677760798e-04,-7.649259167480784770e-05,3.336839515103465171e-04
-2.890382225317633409e-04,7.355056130440140846e-05,-3.917255028703643758e-04
5.603390183650504503e-04,-2.785690676126271692e-05,4.803417876352130333e-04
-2.223924333012927625e-04,-3.603831876552151333e-04,1.125007578006467069e-04
2.863451479158007798e-04,2.192871186865349954e-05,2.557959194181061153e-04
-3.932534615949154861e-04,1.406285904638866161e-04,6.824688180870573651e-05
6.316065009320024183e-04,3.735189889849100092e-04,1.560634748796868566e-04
4.154006947651586669e-04,1.040683753030953982e-04,4.875525582643706413e-04
-2.185429151887207690e-04,-4.205884185195625448e-04,2.120316328087703671e-04
-4.421894351882935006e-04,-2.371391138381545409e-04,4.153505198552817461e-05
1.201547839409464077e-04,-6.808731909544056332e-04,4.526986951363679500e-05
2.398433321829212530e-04,-3.640185337180980611e-04,7.997029122120995670e-05
2.325966540109524979e-04,3.212328482767402632e-04,2.106536533234728127e-04
2.435567039372597982e-04,-1.909632939298919218e-04,-6.411520469171791295e-05
-5.884493320683680320e-04,-2.435858956496213831e-04,-5.048211837107769549e-06
-3.065589617756496829e-05,-8.567238661056949655e-04,2.794848521531489711e-04
-4.130942355965901147e-04,2.808631099885520229e-04,-8.194933567594127788e-05
2.861915541606322973e-04,2.303507335758417157e-04,2.776860395267958148e-04
2.272890725212181552e-04,-1.657261642227947514e-04,-3.409280475066012997e-04
-1.254998525091199912e-04,-2.586638807692468291e-04,7.234996202911329443e-05
5.971102420827685249e-04,-3.664137789965325395e-04,-6.188445814299942788e-05
4.795153865648575767e-05,3.001407889831638051e-04,-1.248139308490667579e-04
1.098705273292656387e-04,1.520528060298111605e-04,3.547700974131535730e-04
-1.665234626263981457e-04,3.592155525769381814e-05,1.428942922461962008e-04
4.771699920043167426e-04,-6.428609545731637674e-04,2.810146914635855029e-04
-1.310824783547823559e-04,2.349128672066502571e-04,-1.060488050971227701e-04
-2.154748574911880313e-04,-8.073626122361006290e-04,-1.809720957354649671e-04
-2.149576696667734996e-04,1.373394328823831720e-04,-6.385705443543975837e-04
-3.591714025241193224e-04,-4.065867913526825610e-04,-3.592115764385774945e-04
1.762196617921178030e-07,-3.959283674121483751e-04,8.835404060935206415e-05
1.430269826105320941e-04,7.416680157613396765e-05,-3.079793857046367409e-04
-8.914433865736347664e-05,1.674767987822507189e-04,-2.324234754132808393e-04
3.763250855290714548e-04,-1.457326423273893432e-05,-1.670032354971157183e-04
-2.965188789206984381e-04,-5.131847709793950973e-05,4.511321054745771821e-04
-6.266599478852986861e-05,-5.502756286865401365e-04,-3.095659382504739317e-04
-1.635295288696374954e-04,-5.236571907432713204e-05,1.704819296287409804e-04
-2.247005599954282704e-04,-1.945573851954579965e-05,-3.183615629926376677e-04
-3.364081090769665433e-04,1.200244798626013299e-04,-1.651763347370393349e-04
-2.117221202344420755e-04,1.565729426132934682e-04,1.004863496657287445e-04
-3.832467806520469759e-04,5.492953441814476298e-05,1.796791650731242764e-04
-2.524466010381307525e-04,1.396854340347387445e-05,1.161034242668436720e-04
6.046005764034949803e-05,4.852683013984924977e-04,-1.674506352735754752e-04
-1.417319552562781068e-04,-9.401692816890508592e-05,-3.777452598007995490e-04
-1.709685689803505128e-04,-2.136403638213392876e-04,3.168046979249426899e-05
1.367764308636092152e-04,-6.562536913529724630e-04,-2.589409775756621682e-04
-2.510646988018779696e-04,-1.005312221315605856e-04,6.437937522658750611e-04
-2.025387631412583751e-04,-1.145853033227433108e-05,9.815320562130652835e-05
-4.347647740056962058e-04,1.186593731315574207e-04,4.590602652633930916e-05
4.160058822977282168e-05,-2.521870466969607138e-04,2.970408768027186890e-04
-1.566889218027998508e-05,9.896675221340190548e-05,-1.424029591332084802e-04
-1.300299812845392598e-04,2.622026822933304574e-04,2.349796825801863439e-04
-1.500224552100746665e-04,4.734316491754087019e-04,-3.180471962633708567e-04
-7.235589264353787294e-04,-2.838837394445703185e-04,-6.573279844354057281e-05
-2.241330149345461436e-04,7.464022702420217538e-05,3.975225972289270454e-04
4.925844651773218726e-05,2.473733864452395828e-04,-6.695070842746309600e-05
-1.706280453571305204e-04,2.685049799555736406e-05,2.591226728582106940e-04
3.292709258918909317e-04,-2.943417334708128331e-04,-8.404172341749046606e-05
-9.632894662436076994e-05,-2.771471482999864891e-04,1.250342877578460845e-04
-2.080996635323189819e-05,7.863505986363124008e-04,-3.505915243583554469e-05
8.972926126309059666e-05,-7.338446664444662256e-05,-5.693479201090921571e-05
-1.498418700935460991e-04,6.777169852689597900e-05,-1.825327466883538681e-04
3.327916213053230864e-04,-1.185572340350003604e-04,5.533549851463515816e-04
-2.527905290019871030e-05,-7.381134912625370644e-05,-2.996746010903576004e-04
-1.599192083533286407e-05,1.952081422551263850e-05,-5.794772461498642126e-05
6.075643466661624365e-05,-3.989723917302771101e-04,-5.232056525000519306e-04
7.890453064125747210e-05,-1.500035437075488256e-04,6.851992729602514581e-04
-3.035420661375146968e-04,-5.334767207923229223e-04,2.050285765037828658e-04
6.900203038422192446e-04,-8.784709717441512207e-05,-6.226951034919719777e-05
-5.131509101750845840e-04,-5.787168086489524396e-04,2.814831145402253557e-04
2.791076717072681589e-04,-2.779007610706917442e-04,-2.296490931924058962e-04
6.786673335738745627e-04,4.260493266979377587e-04,-1.216608983340111260e-04
6.483405815651353127e-04,-2.482111580328110999e-05,1.044757624228291533e-04
-6.195557461433397542e-04,5.567516992701057642e-04,2.278387789176550217e-04
-3.680148825091836815e-04,-5.922197746944326841e-04,3.978198997351370283e-04
6.832839385635733473e-04,-4.475821645659304611e-04,-1.529979383288167585e-04
-3.751432530396198932e-04,9.135479060662699317e-05,1.426754652668181945e-04
-2.984861018426573421e-05,-3.258608420919399619e-05,-1.629542517151352454e-05
-6.568801724711482699e-05,-4.532173349105241803e-04,2.914532411246305191e-04
3.164663803479372296e-04,2.208165064201917055e-04,4.877787039207510250e-04
-1.073883554784622543e-04,6.451671545651052738e-05,1.158475375094636189e-04
1.105838803482639274e-04,-2.194413049905732851e-04,1.641647812608647945e-04
3.475744724742864045e-06,-9.497312550445719600e-05,-1.443985856896328151e-04
1.196684123849699427e-04,4.976981110025782408e-05,1.535150048632433087e-04
-1.979582184201896813e-04,-9.237247419153075717e-05,-2.470131621928670215e-04
2.267374889527021329e-04,-3.865055672467311815e-04,1.062590650445272461e-04
3.303805758798268079e-04,-4.042766332851893880e-04,-3.722418591520388758e-05
-2.541122112623452598e-04,-3.145382111205370168e-04,1.276480506523466104e-04
-4.855755185187331843e-04,2.793095499889319659e-05,-4.827290248914279411e-04
2.580119735122047620e-04,-3.515225114176593062e-04,-2.048357363115248535e-04
1.977119153483715267e-04,2.630002808020432347e-04,-3.662459351670777964e-04
-4.123583319495249810e-04,6.636143479196395835e-05,-1.210516010041118242e-04
-8.117984244826682762e-04,2.037935899377044731e-04,2.471035305178124965e-04
3.876956569743476117e-04,6.442355002071959227e-04,-1.707568994306533450e-05
-4.932518514987048767e-04,-1.618658101822323880e-04,2.403622825121895255e-05
-1.691010888019717500e-04,-3.859141135012273023e-04,6.656613275405431722e-05
2.051700764413434783e-04,5.438476207277504219e-04,4.175398564709445416e-04
7.391347781285324348e-05,-3.558286570717350029e-04,1.725150859885477819e-04
-6.298593363222949664e-04,-1.028350057455278875e-04,-4.626865655211124639e-05
1.875322648311200798e-04,-8.508340002489375546e-04,-3.253188518231723333e-04
2.633655280855687602e-04,-3.424531532466166726e-04,-1.533612435185956668e-04
-2.268277190711472189e-05,2.727386397436846392e-04,3.705138186810817431e-04
-1.873768044054609997e-04,-2.496816381586358766e-04,-2.512894458227748280e-04
-2.809870509952649346e-04,2.879455216048505749e-04,-1.350875527171342303e-05
2.043721509455487858e-04,-2.170090424163731706e-04,-7.196825072518839685e-04
3.716504665966459311e-04,-2.246453982818307621e-04,-6.729307164267544247e-05
-3.222772884430553475e-04,4.141452808464983330e-04,-6.515494639253555618e-04
-9.637055163158287448e-05,-3.098258710254199856e-04,-7.489997448806928824e-05
8.486824710433485495e-04,6.630182326756376820e-05,-1.472427752820501849e-04
-1.751259075041881311e-04,-2.082269402557708070e-04,3.871277752625765429e-04
-2.966898147882486353e-04,3.815944068268185634e-04,-2.106927937217612710e-05
5.681090047115897523e-04,-4.432118926043391791e-04,1.862694629423327719e-04
3.368885530721469224e-04,6.699889130420200786e-04,4.073197189751613157e-04
9.271084576458355625e-05,-2.813385603385848942e-04,-5.151308596728092128e-04
2.414129966997280883e-06,-4.829918174075957093e-04,2.840293744775055241e-04
-8.892052665271457125e-05,3.125942458017374938e-04,1.748077272773702396e-04
-4.463075645829927239e-04,3.667228770092454348e-04,1.227449792733326334e-04
2.985226901176152070e-05,9.545572865276658265e-05,-2.703528622661837094e-04
7.257178744847817518e-05,3.522200041466898670e-05,1.320690606853059952e-04
-2.082800841252759234e-04,-2.908128727327047281e-04,5.065472904558998785e-04
-7.689178234821125886e-05,-2.501133207980024697e-04,1.709907307542056693e-04
-1.529196894498936646e-04,4.117575088096012853e-04,-7.751736909716917421e-04
3.695402886955528854e-04,2.582229324409757859e-04,-2.409939987345172357e-04
1.866273776349696822e-04,-1.299693586150075782e-04,-1.867101722365319279e-04
-1.849410519050434314e-04,8.229691703030143132e-04,-1.379340403989250477e-04
-4.938378706319443548e-05,-2.764965984873118368e-04,5.398430711236822761e-04
1.945500914835532216e-04,-1.605948070777139940e-05,-1.400338738659228667e-04
2.847576389369027463e-04,1.656963285121429246e-04,5.174732523610516086e-04
2.331248028640572185e-05,-4.436701327969828142e-05,3.971679297472842894e-04
-4.547887308523953370e-04,3.904721791710275675e-04,2.251528632425145275e-04
1.012733576815016902e-04,-7.761422241261483419e-05,-3.356305729652793988e-04
4.040752471770387615e-04,1.424196113859822798e-04,-1.971887722621984136e-04
-4.226542708798946960e-04,-2.913812225059419085e-05,2.365694681461723856e-04
-1.316887141132299787e-04,9.228695183634124863e-05,2.406743029417290956e-04
5.403650747367657204e-04,-6.626601694626027788e-05,4.496206737002679033e-04
3.926889726750889967e-04,3.911081318979448603e-04,-2.420984493760918105e-04
-9.221152024959171324e-05,-4.305366515736509087e-04,1.942476965398516066e-04
-1.106549291592536351e-04,4.895613487317187519e-04,-5.117693920678843827e-05
2.946723314967162537e-04,2.092747877163960742e-05,2.064763685130401039e-04
-6.408608419388051730e-04,2.040911804769875160e-04,4.554348740449130017e-04
3.021160137760340301e-04,-2.791669826513760847e-04,6.869910570990743525e-04
-1.813233356751634722e-04,2.539306822698738199e-04,6.330607913112143491e-05
-2.784806268865977030e-04,-6.379060882620952652e-04,-7.651615699921606091e-05
-3.129119418555563557e-04,4.958579629819895524e-04,-7.048977442650969372e-04
2.097800671500770170e-04,-1.244796447447238765e-04,9.167302141532014789e-05
-1.516319065164738373e-04,2.687245701768293323e-04,4.720849690479251301e-05
1.186722301258322947e-04,3.046942335162796029e-04,7.238547999580184590e-05
4.192154195417892933e-04,4.642708777890293042e-06,6.528372306954772315e-05
1.819897788170779897e-04,-3.697702382749499606e-04,3.619812736693733390e-04
1.180108941571906894e-05,-4.679563066268798148e-04,-8.251832595752296414e-04
1.687343478738555637e-04,6.955464855544980958e-04,1.383859623744660718e-04
1.959452593309209362e-04,-1.117371514305261633e-04,-3.263658533078102043e-05
-1.338892349203511486e-04,5.122184106025967848e-04,2.863208392590758738e-04
-3.511139852180889800e-04,4.970095133498133666e-04,-5.996204160574348103e-05
1.600308299602942071e-05,5.449944916328984881e-04,6.935968734888848380e-04
3.990227468224136599e-04,-6.046094997330542925e-04,-2.612139004805104369e-05
7.316022752665486293e-04,-2.460558303810376411e-05,6.991091306601784005e-05
-4.592963424539033847e-05,-2.527965123318988666e-04,-2.364522920746593313e-04
2.685973943124292016e-04,-7.647735275791190410e-06,-5.345579065831799784e-06
1.610222689739497796e-04,2.327258671349995524e-04,-9.893373585473906346e-05
1.748984739637679368e-04,-8.105856112203545542e-05,-8.539198041290133165e-05
6.587443753976480326e-04,3.936676193529694071e-04,-3.355994950657477383e-04
-5.910304787418854065e-05,-5.901428731856706489e-05,8.384087384353584469e-05
1.022898762125634686e-03,1.287152675117246082e-04,-2.191036022424860843e-05
-3.979869894458745380e-04,2.851908122656226000e-04,4.963307252717983611e-05
-3.486897105361131365e-04,5.804226986847201399e-04,-3.859565157162644141e-04
-8.647740238836820986e-05,4.603611143894574255e-05,4.241734350763056772e-04
3.201823480142543688e-04,-2.794533497043689063e-04,1.796357539603352018e-04
-4.810775709725329278e-04,-1.026209742561470469e-04,3.078169445278399288e-04
1.193265082944685565e-04,1.410736104497809168e-04,4.234314192400239819e-04
1.000308016511971144e-04,3.700975411316429559e-06,-2.913487642357429162e-04
6.978223570001978104e-05,2.551401231389111433e-05,2.550061347013640538e-04
3.599443952573395619e-04,1.031898058011065358e-04,3.112927384218409400e-04
3.550937209832178538e-04,1.537992968293068843e-04,3.113282043836497460e-04
1.807683080634927804e-04,-5.383483757742370474e-04,-1.398511310847425071e-04
7.379236097074184800e-04,-6.721536683463858169e-04,-3.340019009734042301e-04
